"Time (s)","Linear Acceleration x (m/s^2)","Linear Acceleration y (m/s^2)","Linear Acceleration z (m/s^2)"
1.241094800E-2,-5.450739861E-1,-2.570880055E-1,3.705473900E0
5.761474800E-2,-4.941419959E-1,7.743369937E-1,9.739609957E-1
6.263637600E-2,-6.668030024E-1,8.878999949E-1,7.884399891E-1
6.765911600E-2,-2.768299878E-1,8.437500149E-2,2.135116100E0
7.268153000E-2,-3.543919921E-1,5.061370134E-1,1.460728049E0
7.770406900E-2,-3.929629922E-1,-7.407690287E-1,3.393268108E0
8.272655400E-2,-3.434950113E-1,-1.586859971E-1,2.775000095E0
8.774919600E-2,-6.600859761E-1,-1.196403980E0,4.239927769E0
9.277178900E-2,-5.632969737E-1,-7.376850247E-1,3.805664062E0
9.779424400E-2,-7.058629990E-1,-1.374068022E0,4.198690891E0
1.028167290E-1,-6.754540205E-1,-1.052477002E0,4.327621937E0
1.078393840E-1,-6.825360060E-1,-1.259556055E0,3.442842007E0
1.128619760E-1,-6.473600268E-1,-1.138705969E0,3.846097946E0
1.178845660E-1,-6.677529812E-1,-9.404169917E-1,2.434916973E0
1.229071460E-1,-6.639620066E-1,-9.274240136E-1,2.933393002E0
1.279296460E-1,-4.774329960E-1,-8.171330094E-1,1.349387050E0
1.329521600E-1,-5.059700012E-1,-7.844319940E-1,1.909461975E0
1.379748160E-1,-3.517119884E-1,-5.416709781E-1,3.194699883E-1
1.429974130E-1,-3.410899937E-1,-6.834999919E-1,7.950819731E-1
1.480200270E-1,-3.676410019E-1,-2.461410016E-1,-6.612330079E-1
1.530426080E-1,-3.171670139E-1,-3.922989964E-1,-1.641660035E-1
1.580650980E-1,-3.468919992E-1,-6.472600251E-2,-1.489969015E0
1.630876120E-1,-3.279010057E-1,-1.715870053E-1,-1.092447996E0
1.681101850E-1,-1.339000016E-1,-2.262599953E-2,-2.065115929E0
1.731327500E-1,-2.239930034E-1,-4.326400161E-2,-1.830824971E0
1.781552450E-1,6.370499730E-2,-4.941999912E-2,-2.291712999E0
1.831777570E-1,-3.327799961E-2,-1.352799963E-2,-2.233922005E0
1.882003630E-1,2.390030026E-1,-1.673430055E-1,-2.168457985E0
1.932229280E-1,9.665399790E-2,-2.414499968E-2,-2.242326975E0
1.982455470E-1,3.538840115E-1,-3.227469921E-1,-2.059607029E0
2.032681540E-1,2.739149928E-1,-9.250299633E-2,-2.138113976E0
2.082906120E-1,1.671449989E-1,-3.116520047E-1,-1.667477965E0
2.133131310E-1,2.417580038E-1,-1.537739933E-1,-1.869119048E0
2.183357160E-1,-9.066899866E-2,-3.262329996E-1,-1.343840003E0
2.233582820E-1,5.156200007E-2,-1.120890006E-1,-1.492252946E0
2.283807670E-1,-2.616170049E-1,-2.331009954E-1,-1.014922976E0
2.334032800E-1,-1.087090001E-1,-1.082009971E-1,-1.153712988E0
2.384258420E-1,-1.667329967E-1,-1.004230008E-1,-8.997859955E-1
2.434484070E-1,-1.595260054E-1,-5.716599897E-2,-9.104440212E-1
2.484710020E-1,5.933900177E-2,1.085370034E-1,-1.057098031E0
2.534936090E-1,1.229100022E-2,7.072699815E-2,-8.974400163E-1
2.585160380E-1,3.142090142E-1,4.107410014E-1,-1.511235952E0
2.635385250E-1,2.166659981E-1,2.106039971E-1,-1.267207026E0
2.685611660E-1,6.340759993E-1,7.054589987E-1,-2.265537024E0
2.735837590E-1,3.802039921E-1,4.650439918E-1,-1.875854969E0
2.786062440E-1,1.073045015E0,7.772989869E-1,-2.943906069E0
2.836287610E-1,7.518479824E-1,5.470010042E-1,-2.657735109E0
2.886513320E-1,1.014793038E0,7.873960137E-1,-3.343821049E0
2.936738980E-1,8.585960269E-1,5.231040120E-1,-3.197335958E0
2.986965080E-1,8.824399710E-1,7.625679970E-1,-3.692363024E0
3.037191150E-1,7.095689774E-1,4.763100147E-1,-3.495640993E0
3.087415190E-1,8.922989964E-1,6.231380105E-1,-3.967452049E0
3.137640060E-1,6.468799710E-1,3.820570111E-1,-3.893996954E0
3.187866330E-1,8.927609921E-1,5.561640263E-1,-4.007616043E0
3.238092260E-1,6.763730049E-1,3.083449900E-1,-3.946167946E0
3.288317110E-1,5.729929805E-1,4.081330001E-1,-3.994419098E0
3.338542280E-1,5.635709763E-1,1.919919997E-1,-4.027584076E0
3.388768280E-1,1.943439990E-1,1.255089939E-1,-3.533198118E0
3.438993940E-1,2.580890059E-1,5.812999979E-2,-3.769316912E0
3.489218980E-1,-1.405889988E-1,-4.599300027E-2,-2.592035055E0
3.539444100E-1,-1.778000034E-3,-7.168599963E-2,-3.119029045E0
3.589670180E-1,-2.970280051E-1,-3.403249979E-1,-1.371489048E0
3.639896140E-1,-1.907359958E-1,-2.020280063E-1,-1.957553983E0
3.690121890E-1,-3.287430108E-1,-4.890860021E-1,-4.048210084E-1
3.740347700E-1,-2.789900005E-1,-3.660990000E-1,-8.581179976E-1
3.790572710E-1,-2.491230071E-1,-4.679760039E-1,2.758859992E-1
3.840797850E-1,-1.934009939E-1,-4.266769886E-1,-3.437199816E-2
3.891023820E-1,-1.335780025E-1,-3.162299991E-1,6.110429764E-1
3.941249470E-1,-1.974620074E-1,-3.781259954E-1,5.039389729E-1
3.991474230E-1,3.581599891E-2,-2.659380138E-1,7.086600065E-1
4.041699350E-1,-8.145199716E-2,-2.786239982E-1,6.951460242E-1
4.091925760E-1,2.087340057E-1,-1.983229965E-1,7.612029910E-1
4.142151730E-1,7.132200152E-2,-2.566789985E-1,7.016670108E-1
4.192377530E-1,2.783049941E-1,-2.062640041E-1,9.146969914E-1
4.242603340E-1,9.699399769E-2,-2.169979960E-1,8.291559815E-1
4.292828010E-1,5.598009825E-1,-3.469609916E-1,1.095774055E0
4.343053150E-1,2.519260049E-1,-2.985090017E-1,1.047644019E0
4.393278880E-1,6.212149858E-1,-3.903470039E-1,1.031396985E0
4.443504530E-1,4.387049973E-1,-3.760220110E-1,1.041759014E0
4.493729330E-1,7.850559950E-1,-5.686579943E-1,1.605041027E0
4.543954450E-1,4.634329975E-1,-3.735559881E-1,1.266083956E0
4.594180620E-1,7.578200102E-1,-8.630139828E-1,1.791185975E0
4.644406590E-1,6.679559946E-1,-6.475679874E-1,1.731134057E0
4.694630980E-1,4.244160056E-1,-8.919360042E-1,1.895949006E0
4.744855840E-1,5.359280109E-1,-8.284869790E-1,1.863754034E0
4.795082350E-1,-2.442399971E-2,-7.839000225E-1,1.853909016E0
4.845308270E-1,1.677549928E-1,-7.176889777E-1,1.837522984E0
4.895534170E-1,-2.267760038E-1,-7.721840143E-1,1.951869965E0
4.945759970E-1,-5.363500118E-2,-6.694790125E-1,1.868602037E0
4.995984690E-1,-4.407260120E-1,-6.836249828E-1,2.099009991E0
5.046209830E-1,-2.309519947E-1,-6.479539871E-1,2.001607895E0
5.096435600E-1,-5.026869774E-1,-6.120169759E-1,2.143670082E0
5.146661250E-1,-4.037390053E-1,-5.787789822E-1,2.149146080E0
5.196886150E-1,-4.368259907E-1,-4.583190084E-1,1.823757052E0
5.247111270E-1,-3.261840045E-1,-4.900549948E-1,2.003390074E0
5.297337690E-1,-5.699650049E-1,-2.142619938E-1,1.345890045E0
5.347563660E-1,-4.118230045E-1,-3.464539945E-1,1.579496980E0
5.397789360E-1,-5.841540098E-1,-1.462199986E-1,7.423850298E-1
5.448015170E-1,-5.121510029E-1,-2.003889978E-1,1.073591948E0
5.498239980E-1,-5.415260196E-1,3.929999948E-4,2.067929953E-1
5.548465120E-1,-4.838359952E-1,-1.154249981E-1,4.509019852E-1
5.598691180E-1,-5.441330075E-1,-3.540100157E-2,-1.262709945E-1
5.648916830E-1,-5.037159920E-1,2.875000006E-3,-8.990000002E-3
5.699142980E-1,-4.480899870E-1,-1.479849964E-1,-1.205770001E-1
5.749369050E-1,-4.463410079E-1,-6.602700055E-2,-1.660639942E-1
5.799593920E-1,-4.784460068E-1,-3.130809963E-1,2.448579967E-1
5.849819110E-1,-3.790729940E-1,-7.318200171E-2,2.383900061E-2
5.900045010E-1,-5.287579894E-1,-6.098309755E-1,1.063663960E0
5.950270670E-1,-4.373669922E-1,-2.519139946E-1,5.585759878E-1
6.000495570E-1,-6.958159804E-1,-7.188940048E-1,1.932104945E0
6.050720690E-1,-4.995970130E-1,-3.832550049E-1,1.482589006E0
6.100946790E-1,-6.691889763E-1,-8.335049748E-1,2.797226906E0
6.151172440E-1,-5.659520030E-1,-4.478169978E-1,2.363599062E0
6.201398780E-1,-5.717459917E-1,-8.658170104E-1,3.456902981E0
6.251624850E-1,-4.663920105E-1,-5.235700011E-1,3.154637098E0
6.301849580E-1,-5.517429709E-1,-7.086110115E-1,3.735913992E0
6.352074770E-1,-4.514069855E-1,-5.370560288E-1,3.644146919E0
6.402300350E-1,-1.310340017E-1,-5.022320151E-1,3.672537088E0
6.452526010E-1,-2.871420085E-1,-4.186069965E-1,3.745244980E0
6.502750810E-1,1.441289932E-1,-1.249800026E-1,2.982156992E0
6.552975930E-1,3.849599883E-2,-2.197470069E-1,3.422274113E0
6.603201760E-1,4.002110064E-1,2.619459927E-1,1.766955972E0
6.653427410E-1,2.082509995E-1,8.334100246E-2,2.384567022E0
6.703652310E-1,6.679540277E-1,6.221429706E-1,4.578779936E-1
6.753877430E-1,4.458090067E-1,3.996480107E-1,1.045550942E0
6.804103650E-1,8.572880030E-1,9.661070108E-1,-4.907850027E-1
6.854329620E-1,6.266769767E-1,6.892709732E-1,-7.473299652E-2
6.904555320E-1,1.065003991E0,1.200214982E0,-1.444113970E0
6.954781130E-1,7.272130251E-1,9.316040277E-1,-9.335970283E-1
7.005005990E-1,1.247717023E0,1.274796009E0,-2.346848011E0
7.055231130E-1,9.214490056E-1,1.039306045E0,-1.944224954E0
7.105457000E-1,1.035094023E0,1.300115943E0,-2.759701967E0
7.155682650E-1,9.092649817E-1,1.102921963E0,-2.598095894E0
7.205907550E-1,5.588129759E-1,9.971010089E-1,-2.619282961E0
7.256132670E-1,6.386690140E-1,1.000313997E0,-2.751751900E0
7.306358390E-1,-4.157999903E-2,8.148369789E-1,-2.184191942E0
7.356584040E-1,2.352669984E-1,7.859269977E-1,-2.381500006E0
7.406808840E-1,-3.032689989E-1,6.915609837E-1,-1.609905005E0
7.457033960E-1,-9.653799981E-2,7.057690024E-1,-1.958224058E0
7.507259970E-1,-3.230000138E-1,5.567799807E-1,-1.265594006E0
7.557485620E-1,-1.817460060E-1,5.401729941E-1,-1.412042975E0
7.607711910E-1,-3.343580067E-1,6.273480058E-1,-1.317482948E0
7.657937980E-1,-1.663129926E-1,5.431079865E-1,-1.228937030E0
7.708162960E-1,-2.065639943E-1,6.371610165E-1,-1.673089981E0
7.758388150E-1,-1.802819967E-1,4.925189912E-1,-1.463994026E0
7.808614100E-1,4.957399890E-2,7.546769977E-1,-2.331908941E0
7.858839760E-1,1.463999972E-3,5.240949988E-1,-1.955450058E0
7.909066000E-1,5.327399820E-2,7.924900055E-1,-3.186125994E0
7.959292070E-1,9.946700186E-2,5.041610003E-1,-2.712301016E0
8.009516260E-1,-2.307090014E-1,7.516549826E-1,-3.842351913E0
8.059741130E-1,-6.429900229E-2,4.920620024E-1,-3.552362919E0
8.109967490E-1,-4.209370017E-1,5.424460173E-1,-4.047707081E0
8.160193420E-1,-2.510530055E-1,3.418729901E-1,-3.968911886E0
8.210418270E-1,-4.528909922E-1,2.635399997E-1,-3.700165033E0
8.260643440E-1,-2.659449875E-1,1.295440048E-1,-3.846448898E0
8.310869250E-1,-4.996240139E-1,1.162900031E-2,-3.121129990E0
8.361094910E-1,-2.716209888E-1,-3.078399971E-2,-3.375832081E0
8.411321380E-1,-5.346159935E-1,-1.363530010E-1,-2.512711048E0
8.461547450E-1,-3.226589859E-1,-2.215400040E-1,-2.807248116E0
8.511771980E-1,-5.304110050E-1,-2.063820064E-1,-1.942407966E0
8.561996850E-1,-3.040820062E-1,-1.846279949E-1,-2.193588972E0
8.612223210E-1,-3.353910148E-1,-1.938990057E-1,-1.273926973E0
8.662449140E-1,-2.334199995E-1,-2.557500005E-1,-1.551596045E0
8.712673990E-1,-1.899079978E-1,-3.561399877E-2,-1.098402977E0
8.762899160E-1,-8.038599789E-2,-1.272069961E-1,-1.143941998E0
8.813125020E-1,-1.636839956E-1,-2.828500047E-2,-8.138509989E-1
8.863350680E-1,-4.969200119E-2,-5.999900028E-2,-9.477909803E-1
8.913575530E-1,-1.048580036E-1,-1.972260028E-1,-1.950249970E-1
8.963800650E-1,-9.060499817E-2,-1.034760028E-1,-5.656870008E-1
9.014026800E-1,-2.167100012E-1,-2.792040110E-1,6.354820132E-1
9.064252450E-1,-8.138199896E-2,-1.797360033E-1,2.090719938E-1
9.114477350E-1,-2.964319885E-1,-5.131999850E-1,1.404044986E0
9.164702470E-1,-2.499359995E-1,-3.028349876E-1,1.020349026E0
9.214928780E-1,-2.940450013E-1,-5.824189782E-1,1.827911973E0
9.265154750E-1,-2.807709873E-1,-4.768179953E-1,1.664937973E0
9.315380460E-1,-1.367869973E-1,-5.635150075E-1,1.802629948E0
9.365606270E-1,-2.567420006E-1,-5.328660011E-1,1.857074022E0
9.415831130E-1,4.224000033E-3,-4.544759989E-1,1.641312003E0
9.466056270E-1,-7.489199936E-2,-5.146960020E-1,1.731922030E0
9.516282180E-1,9.117399901E-2,-3.131220043E-1,1.422940016E0
9.566507830E-1,6.189300120E-2,-3.691250086E-1,1.516283035E0
9.616732690E-1,1.047239974E-1,-2.220309973E-1,1.084336042E0
9.666957810E-1,4.888899997E-2,-2.522700131E-1,1.251366973E0
9.717184120E-1,8.594200015E-2,-2.366320044E-1,1.187142968E0
9.767410080E-1,9.061700106E-2,-2.356220037E-1,1.085929990E0
9.817635830E-1,-1.090900004E-1,-2.935889959E-1,1.357308030E0
9.867861640E-1,-3.552899882E-2,-1.883590072E-1,1.220697045E0
9.918086310E-1,-1.203150004E-1,-4.737190008E-1,1.709231019E0
9.968311450E-1,-1.340959966E-1,-3.127959967E-1,1.533669949E0
1.001853727E0,-1.799370050E-1,-6.056280136E-1,2.306267977E0
1.006876292E0,-1.416070014E-1,-3.797999918E-1,1.957571983E0
1.011898782E0,-4.351209998E-1,-7.526320219E-1,3.101775885E0
1.016921294E0,-2.878609896E-1,-5.408499837E-1,2.631419897E0
1.021943881E0,-6.668059826E-1,-9.038010240E-1,3.871865034E0
1.026966446E0,-5.393369794E-1,-6.837880015E-1,3.505409002E0
1.031989070E0,-7.113969922E-1,-7.479190230E-1,3.942401886E0
1.037011677E0,-6.499819756E-1,-7.271320224E-1,3.972132921E0
1.042034175E0,-6.905140281E-1,-4.337570071E-1,3.526506901E0
1.047056694E0,-6.916120052E-1,-5.340999961E-1,3.801358938E0
1.052079260E0,-3.638080060E-1,-4.346700013E-2,2.495157003E0
1.057101826E0,-5.235540271E-1,-2.669399977E-1,3.090895891E0
1.062124436E0,-7.633200288E-2,4.641399980E-1,1.485811949E0
1.067147043E0,-2.441380024E-1,1.535709947E-1,1.962780952E0
1.072169526E0,3.271250129E-1,5.029889941E-1,9.260010123E-1
1.077192045E0,7.562600076E-2,4.800570011E-1,1.078441024E0
1.082214640E0,4.051490128E-1,-5.668099970E-2,1.667183995E0
1.087237206E0,2.404720038E-1,3.206799924E-1,1.126145959E0
1.092259696E0,2.317389995E-1,-8.733559847E-1,3.026879072E0
1.097282208E0,1.771229953E-1,-2.600429952E-1,2.279614925E0
1.102304780E0,-1.237310022E-1,-1.472836018E0,4.499820232E0
1.107327345E0,-8.680099994E-2,-8.925250173E-1,3.708311081E0
1.112349821E0,-3.833749890E-1,-1.736870050E0,5.462415218E0
1.117372333E0,-3.905909956E-1,-1.260712028E0,5.058783054E0
1.122394910E0,-3.890999854E-1,-1.909697056E0,5.554131031E0
1.127417475E0,-4.463660121E-1,-1.545431972E0,5.601511955E0
1.132440104E0,-4.289140105E-1,-1.681553960E0,4.929678917E0
1.137462711E0,-3.935030103E-1,-1.574808955E0,5.337425232E0
1.142485204E0,-5.661810040E-1,-1.261289001E0,3.692047119E0
1.147507723E0,-5.188789964E-1,-1.286434054E0,4.335311890E0
1.152530299E0,-6.019129753E-1,-8.341580033E-1,2.359086990E0
1.157552865E0,-5.609920025E-1,-9.768670201E-1,3.015391111E0
1.162575350E0,-1.936289966E-1,-4.634290040E-1,1.272197008E0
1.167597862E0,-4.370819926E-1,-5.584220290E-1,1.756085038E0
1.172620459E0,3.022609949E-1,-2.630729973E-1,5.841400027E-1
1.177643024E0,5.045299977E-2,-3.510960042E-1,9.204959869E-1
1.182665648E0,2.725700140E-1,1.228580028E-1,-1.425189972E-1
1.187688255E0,2.763330042E-1,-8.148899674E-2,2.382169962E-1
1.192710714E0,3.602800146E-2,2.966899872E-1,-1.023157001E0
1.197733233E0,4.282899946E-2,1.518000066E-1,-5.551630259E-1
1.202755809E0,-1.963219941E-1,4.799050093E-1,-1.961590052E0
1.207778375E0,-1.132809967E-1,3.251329958E-1,-1.542500019E0
1.212800851E0,-1.955219954E-1,5.195569992E-1,-2.375478983E0
1.217823363E0,-3.393509984E-1,4.147419930E-1,-2.240478039E0
1.222845948E0,2.422360033E-1,3.279789984E-1,-2.513809919E0
1.227868513E0,-7.763300091E-2,3.810099959E-1,-2.429800987E0
1.232891161E0,7.030019760E-1,1.228090003E-1,-2.480607986E0
1.237913768E0,3.517549932E-1,2.097360045E-1,-2.533274889E0
1.242936251E0,6.661670208E-1,1.846739948E-1,-2.536515951E0
1.247958770E0,5.992850065E-1,1.449359953E-1,-2.499115944E0
1.252981361E0,2.773970068E-1,2.802000046E-1,-2.769995928E0
1.258003927E0,4.066149890E-1,2.066230029E-1,-2.609484911E0
1.263026417E0,-5.055300146E-2,3.114970028E-1,-3.066595078E0
1.268048929E0,1.512150019E-1,1.564369947E-1,-2.982208014E0
1.273071551E0,-2.872290015E-1,3.792949915E-1,-3.256974936E0
1.278094148E0,-1.478119940E-1,2.510299981E-1,-3.144999981E0
1.283116733E0,-5.761099979E-2,3.065499961E-1,-3.633809090E0
1.288139314E0,-9.801600128E-2,1.839230061E-1,-3.453702927E0
1.293161809E0,9.842400253E-2,3.641369939E-1,-3.752449989E0
1.298184323E0,1.465099957E-2,1.669320017E-1,-3.683242083E0
1.303206910E0,3.093320131E-1,2.428179979E-1,-3.894522905E0
1.308229475E0,1.339599937E-1,1.319520026E-1,-3.785864115E0
1.313251956E0,3.211210072E-1,1.688970029E-1,-3.971286058E0
1.318274468E0,1.654569954E-1,1.957700029E-2,-3.936547995E0
1.323297055E0,1.381549984E-1,7.571999729E-2,-3.949986935E0
1.328319620E0,1.373579949E-1,-3.128900006E-2,-3.977883101E0
1.333342263E0,-3.302299976E-2,6.252100319E-2,-3.644133091E0
1.338364869E0,-4.135499895E-2,-8.815799654E-2,-3.768557072E0
1.343387357E0,-9.093499929E-2,1.841999963E-2,-3.378792048E0
1.348409876E0,-6.381399930E-2,-1.831270009E-1,-3.485343933E0
1.353432486E0,-2.552829981E-1,2.608899958E-2,-3.064631939E0
1.358455052E0,-1.605349928E-1,-1.281519979E-1,-3.179940939E0
1.363477570E0,-2.601050138E-1,-1.445200015E-2,-2.810092926E0
1.368500082E0,-2.518770099E-1,-1.870719939E-1,-2.884206057E0
1.373522679E0,-3.137100041E-1,7.974500209E-2,-2.483977079E0
1.378545244E0,-1.858099997E-1,-1.626169980E-1,-2.632747889E0
1.383567868E0,-5.686119795E-1,1.189749986E-1,-2.205725908E0
1.388590475E0,-3.211669922E-1,-4.766299948E-2,-2.307034969E0
1.393612968E0,-7.628380060E-1,9.332399815E-2,-1.597010016E0
1.398635487E0,-5.654910207E-1,-8.868999779E-3,-1.937530994E0
1.403658087E0,-6.667349935E-1,-2.990199998E-2,-8.585829735E-1
1.408680653E0,-6.545069814E-1,7.550000213E-3,-1.220818996E0
1.413703124E0,-4.193710089E-1,-1.219429970E-1,-1.241599955E-2
1.418725636E0,-5.027300119E-1,-6.495600194E-2,-5.157430172E-1
1.423748213E0,7.531999797E-2,-4.049269855E-1,1.134412050E0
1.428770778E0,-1.635169983E-1,-1.779329926E-1,5.326110125E-1
1.433793263E0,1.894640028E-1,-5.384150147E-1,2.030767918E0
1.438815775E0,5.926299840E-2,-3.755469918E-1,1.570868969E0
1.443838412E0,2.445439994E-1,-7.340040207E-1,2.663395882E0
1.448861009E0,1.378220022E-1,-5.316209793E-1,2.409794092E0
1.453883578E0,4.173199832E-2,-7.299929857E-1,2.746134996E0
1.458906159E0,9.871400148E-2,-7.012599707E-1,2.746216059E0
1.463928636E0,-1.525699943E-1,-4.858599901E-1,2.260065079E0
1.468951150E0,-1.145699993E-1,-5.515570045E-1,2.530050993E0
1.473973757E0,-9.781000204E-3,-4.339759946E-1,1.834005952E0
1.478996322E0,-1.382919997E-1,-4.000520110E-1,2.030973911E0
1.484018946E0,2.927370071E-1,-4.200829864E-1,1.753111959E0
1.489041553E0,9.999399632E-2,-3.775250018E-1,1.699764967E0
1.494064050E0,6.367750168E-1,-5.309770107E-1,2.057614088E0
1.499086569E0,3.901560009E-1,-4.107060134E-1,1.893116951E0
1.504109150E0,6.503040195E-1,-5.803279877E-1,2.555453062E0
1.509131716E0,6.211829782E-1,-4.717180133E-1,2.278867006E0
1.514154202E0,2.744170129E-1,-5.478569865E-1,2.966362953E0
1.519176714E0,4.459860027E-1,-4.400570095E-1,2.760987997E0
1.524199296E0,1.174319983E-1,-5.869010091E-1,3.237767935E0
1.529221861E0,2.128580064E-1,-4.569100142E-1,3.104370117E0
1.534244336E0,8.895500004E-2,-6.158400178E-1,3.603069067E0
1.539266848E0,1.355929971E-1,-5.262539983E-1,3.432744980E0
1.544289500E0,-4.532000050E-3,-5.766459703E-1,3.350786924E0
1.549312097E0,9.447900206E-2,-5.115439892E-1,3.563868999E0
1.554334681E0,-1.547710001E-1,-4.349069893E-1,2.705941916E0
1.559357262E0,-3.046800010E-2,-4.935219884E-1,3.053772926E0
1.564379753E0,-3.189029992E-1,-2.310310006E-1,1.711187959E0
1.569402267E0,-1.714839935E-1,-3.255159855E-1,2.186307907E0
1.574424853E0,-3.442539871E-1,-7.512000203E-2,7.397279739E-1
1.579447418E0,-2.742530107E-1,-1.554089934E-1,1.218219042E0
1.584470052E0,-1.881069988E-1,-6.925500184E-2,1.089669988E-1
1.589492659E0,-2.700189948E-1,-6.056899950E-2,3.934229910E-1
1.594515146E0,9.413000196E-3,-4.580140114E-1,3.425079882E-1
1.599537665E0,-1.123659983E-1,-1.059190035E-1,4.636799917E-2
1.604560266E0,2.121799998E-2,-7.963290215E-1,1.296641946E0
1.609582832E0,2.097300068E-2,-4.365819991E-1,7.536919713E-1
1.614605441E0,-1.124999952E-3,-1.126798034E0,2.316555023E0
1.619628048E0,3.810799867E-2,-6.996210217E-1,1.824715972E0
1.624650550E0,-1.432179958E-1,-1.186846972E0,2.776438951E0
1.629673069E0,2.404399961E-2,-9.094439745E-1,2.629998922E0
1.634695684E0,-2.873769999E-1,-1.043928981E0,2.357702971E0
1.639718250E0,-1.055419967E-1,-8.635029793E-1,2.657386065E0
1.644740740E0,-3.876349926E-1,-6.526020169E-1,1.323673010E0
1.649763252E0,-2.412520051E-1,-6.810690165E-1,1.864094019E0
1.654785819E0,4.689080119E-1,-4.156610072E-1,5.184059739E-1
1.659808384E0,7.129199803E-2,-3.857020140E-1,8.997669816E-1
1.664831008E0,8.799660206E-1,-9.886000305E-3,-4.059500098E-1
1.669853615E0,6.831020117E-1,-2.061470002E-1,1.000519991E-1
1.674876088E0,9.099860191E-1,3.581460118E-1,-1.679527998E0
1.679898607E0,7.652339935E-1,1.876949966E-1,-9.922180176E-1
1.684921192E0,6.728659868E-1,6.643080115E-1,-2.637912989E0
1.689943758E0,5.909079909E-1,4.611090124E-1,-2.258383989E0
1.694966253E0,3.687990010E-1,8.775219917E-1,-3.170263052E0
1.699988765E0,3.718459904E-1,6.504629850E-1,-2.937681913E0
1.705011342E0,1.157089993E-1,8.836020231E-1,-3.350281000E0
1.710033907E0,1.072409973E-1,7.539529800E-1,-3.322469950E0
1.715056536E0,4.711800069E-2,7.384459972E-1,-3.174369097E0
1.720079143E0,-2.555700019E-2,7.725700140E-1,-3.301548958E0
1.725101612E0,-5.451599881E-2,5.077570081E-1,-2.490245104E0
1.730124131E0,-5.259599909E-2,6.066780090E-1,-2.872086048E0
1.735146717E0,-2.956089973E-1,3.013150096E-1,-1.714158058E0
1.740169283E0,-1.765850037E-1,4.785990119E-1,-2.069145918E0
1.745191739E0,-4.851109982E-1,2.132959962E-1,-1.135314941E0
1.750214251E0,-3.734009862E-1,3.621279895E-1,-1.383638024E0
1.755236824E0,-5.829020143E-1,3.093230128E-1,-8.533080220E-1
1.760259389E0,-4.377869964E-1,3.602469862E-1,-9.462990165E-1
1.765282013E0,-3.887740076E-1,3.705430031E-1,-9.237970114E-1
1.770304620E0,-4.634270072E-1,4.004060030E-1,-8.293190002E-1
1.775327103E0,8.625300229E-2,4.960159957E-1,-9.768369794E-1
1.780349622E0,-6.254699826E-2,4.418820143E-1,-1.001276970E0
1.785372198E0,2.992730141E-1,6.942200065E-1,-1.265493035E0
1.790394764E0,2.213039994E-1,5.325620174E-1,-1.062631965E0
1.795417249E0,2.093690038E-1,8.800449967E-1,-2.011225939E0
1.800439761E0,2.919430137E-1,6.257209778E-1,-1.594889045E0
1.805462393E0,-1.489300001E-2,1.042093992E0,-2.901534081E0
1.810484989E0,9.713599831E-2,7.538669705E-1,-2.468708992E0
1.815507550E0,-2.125910074E-1,1.085181952E0,-3.591123104E0
1.820530131E0,-9.419000149E-2,7.739700079E-1,-3.323832035E0
1.825552622E0,-2.939209938E-1,9.883360267E-1,-3.855710983E0
1.830575136E0,-1.822330058E-1,7.343649864E-1,-3.726711035E0
1.835597768E0,-2.994590104E-1,7.676990032E-1,-3.621464968E0
1.840620365E0,-1.691640019E-1,5.642359853E-1,-3.827372074E0
1.845642795E0,-4.081130028E-1,4.482980072E-1,-2.529138088E0
1.850665281E0,-2.114520073E-1,4.523499906E-1,-3.105176926E0
1.855687913E0,-5.505260229E-1,1.901039928E-1,-1.556331992E0
1.860710505E0,-3.554480076E-1,1.635189950E-1,-1.977581024E0
1.865733067E0,-4.302769899E-1,8.673900366E-2,-1.017858982E0
1.870755647E0,-3.583790064E-1,6.668200344E-2,-1.180953979E0
1.875778137E0,-3.651649952E-1,1.825799979E-2,-6.103140116E-1
1.880800651E0,-3.042680025E-1,-4.848000128E-3,-8.671320081E-1
1.885823233E0,2.087740004E-1,-3.162600100E-2,-2.685270011E-1
1.890845798E0,-1.185080037E-1,-6.420599669E-2,-3.278869987E-1
1.895868422E0,5.578780174E-1,-7.013799995E-2,-3.605899960E-2
1.900891029E0,3.981400132E-1,-1.170699969E-1,-2.173800021E-1
1.905913522E0,2.811770141E-1,5.794899911E-2,2.605119944E-1
1.910936041E0,3.715260029E-1,-4.962399974E-2,1.729570031E-1
1.915958636E0,-4.757900164E-2,5.242399871E-2,4.262860119E-1
1.920981202E0,8.499699831E-2,-1.570400037E-2,3.562279940E-1
1.926003835E0,-2.665419877E-1,1.656699926E-2,7.109130025E-1
1.931026442E0,-1.224099994E-1,8.488000371E-3,5.561879873E-1
1.936048930E0,-3.395720124E-1,3.352999920E-3,1.133913040E0
1.941071449E0,-2.777900100E-1,7.999999798E-5,9.617230296E-1
1.946094025E0,-3.740499914E-2,-1.297499985E-1,1.434296966E0
1.951116591E0,-1.801829934E-1,-2.234799974E-2,1.271301985E0
1.956139096E0,3.677229881E-1,-2.334730029E-1,2.001717091E0
1.961161608E0,2.359990031E-1,-1.634850055E-1,1.650272012E0
1.966184240E0,5.661060214E-1,-3.146150112E-1,2.520062923E0
1.971206837E0,4.584789872E-1,-2.453619987E-1,2.312939882E0
1.976229407E0,2.179110050E-1,-3.183090091E-1,2.795286894E0
1.981251988E0,4.768170118E-1,-2.915300131E-1,2.672128916E0
1.986274483E0,-2.306039929E-1,-2.867589891E-1,2.958388090E0
1.991296997E0,-2.187200077E-2,-2.553330064E-1,2.855132103E0
1.996319584E0,-2.554950118E-1,-3.239080012E-1,2.907418013E0
2.001342149E0,-2.835040092E-1,-2.616209984E-1,2.974632978E0
2.006364635E0,-4.914800078E-2,-2.802869976E-1,2.774784088E0
2.011387147E0,-1.233979985E-1,-2.985079885E-1,2.882949114E0
2.016409783E0,2.238280028E-1,-2.626279891E-1,2.469274998E0
2.021432380E0,8.142799884E-2,-2.746810019E-1,2.603219986E0
2.026454945E0,2.110390067E-1,-1.493480057E-1,2.241971016E0
2.031477526E0,2.257419974E-1,-2.250899971E-1,2.363405943E0
2.036500040E0,1.311489940E-1,-7.469800115E-2,1.937970996E0
2.041522554E0,1.976989955E-1,-1.182909980E-1,2.099893093E0
2.046545176E0,-9.264600277E-2,-5.665399879E-2,1.750663042E0
2.051567773E0,9.000000358E-2,-8.983299881E-2,1.890174985E0
2.056590348E0,-2.803350091E-1,6.324499846E-2,1.625288963E0
2.061612929E0,-9.379799664E-2,-2.861200087E-2,1.742815971E0
2.066635415E0,-5.566570163E-1,2.405699939E-1,1.191192031E0
2.071657929E0,-3.135530055E-1,1.136339977E-1,1.422049999E0
2.076680503E0,-3.911229968E-1,1.287019998E-1,9.307000041E-1
2.081703068E0,-4.813289940E-1,2.130970061E-1,9.937940240E-1
2.086725687E0,1.878540069E-1,-2.315579951E-1,1.497223973E0
2.091748294E0,-7.724100351E-2,1.420509964E-1,9.496440291E-1
2.096770782E0,4.539400041E-1,-1.044422030E0,2.784998894E0
2.101793301E0,2.560339868E-1,-4.273590147E-1,2.123620987E0
2.106815882E0,1.504579931E-1,-1.602355957E0,3.998353004E0
2.111838448E0,2.135269940E-1,-1.059504032E0,3.368012905E0
2.116860943E0,-3.028349876E-1,-1.852825046E0,4.735344887E0
2.121883455E0,-1.309169978E-1,-1.385239959E0,4.373330116E0
2.126906124E0,-7.341880202E-1,-1.751587987E0,4.972663879E0
2.131928721E0,-5.992199779E-1,-1.500187039E0,4.877474785E0
2.136951305E0,-7.874019742E-1,-1.495825052E0,4.481428146E0
2.141973886E0,-7.828590274E-1,-1.401864052E0,4.804234028E0
2.146996377E0,-4.960159957E-1,-1.143690944E0,3.591376066E0
2.152018891E0,-7.080209851E-1,-1.148725986E0,4.102620125E0
2.157041513E0,7.576200366E-2,-7.173140049E-1,2.467206001E0
2.162064110E0,-2.109089941E-1,-8.796529770E-1,2.993294954E0
2.167086675E0,1.433939934E-1,-2.974700034E-1,1.434934974E0
2.172109256E0,6.431899965E-2,-4.828079939E-1,1.972545028E0
2.177131837E0,-7.046999875E-3,-8.602999896E-2,7.601540089E-1
2.182154377E0,3.253500164E-2,3.625380099E-1,-4.685490131E-1
2.187176958E0,-1.192770004E-1,6.157999858E-2,8.679799736E-2
2.192199451E0,2.812159956E-1,5.068569779E-1,-1.215144038E0
2.197221967E0,-7.733199745E-2,4.112469852E-1,-8.936150074E-1
2.202244553E0,5.755640268E-1,4.576410055E-1,-1.748826981E0
2.207267119E0,2.213940024E-1,4.072369933E-1,-1.494882941E0
2.212289638E0,8.266310096E-1,3.825190067E-1,-2.051923037E0
2.217312150E0,4.668959975E-1,4.114370048E-1,-1.955968976E0
2.222334758E0,9.791849852E-1,1.662790030E-1,-1.805119038E0
2.227357355E0,7.388139963E-1,3.307870030E-1,-1.997146964E0
2.232379930E0,4.510729909E-1,1.221389994E-1,-1.274590969E0
2.237402511E0,6.656349897E-1,2.046180069E-1,-1.524024010E0
2.242424997E0,-2.412949950E-1,1.442500055E-1,-1.034440994E0
2.247447511E0,4.476999864E-2,2.441329956E-1,-1.084758997E0
2.252470177E0,-6.450539827E-1,2.487969995E-1,-9.944769740E-1
2.257492774E0,-3.284429908E-1,2.015029937E-1,-1.032364011E0
2.262515208E0,-9.041650295E-1,3.765510023E-1,-1.259662986E0
2.267537694E0,-6.502190232E-1,3.052400053E-1,-1.046048999E0
2.272560326E0,-7.764629722E-1,5.075939894E-1,-1.939067006E0
2.277582918E0,-7.104030252E-1,3.367640078E-1,-1.572281957E0
2.282605499E0,-4.679610133E-1,5.555419922E-1,-2.662492990E0
2.287628079E0,-5.543029904E-1,3.797509968E-1,-2.304738045E0
2.292650703E0,-5.035600066E-2,5.517939925E-1,-3.181802034E0
2.297673311E0,-2.794249952E-1,3.355830014E-1,-2.925606012E0
2.302695765E0,2.464639992E-1,6.508790255E-1,-3.966825962E0
2.307718284E0,4.183999822E-2,3.088639975E-1,-3.528100014E0
2.312740870E0,2.437449992E-1,6.074360013E-1,-4.763623238E0
2.317763436E0,2.047500014E-2,2.612229884E-1,-4.355593204E0
2.322785902E0,2.560769916E-1,5.089250207E-1,-5.317144871E0
2.327808414E0,4.971599951E-2,1.046869978E-1,-5.054431915E0
2.332831051E0,7.130000158E-4,2.469609976E-1,-5.388261795E0
2.337853648E0,-1.150999963E-1,-3.009000048E-2,-5.286333084E0
2.342876238E0,-3.655669987E-1,-2.161210030E-1,-4.721023083E0
2.347898819E0,-3.125939965E-1,-3.232980072E-1,-5.124996185E0
2.352921320E0,-6.748080254E-1,-5.514900088E-1,-3.566813946E0
2.357943834E0,-5.500109792E-1,-5.666800141E-1,-4.086956978E0
2.362966456E0,-8.949220181E-1,-8.065980077E-1,-2.515332937E0
2.367989053E0,-6.624720097E-1,-7.247269750E-1,-3.066018105E0
2.373011478E0,-8.648530245E-1,-9.088379741E-1,-1.544041991E0
2.378033964E0,-7.601010203E-1,-7.847290039E-1,-2.016211987E0
2.383056587E0,-8.472719789E-1,-7.906699777E-1,-7.165380120E-1
2.388079179E0,-6.876400113E-1,-7.750840187E-1,-1.126678944E0
2.393101755E0,-5.669720173E-1,-7.193970084E-1,-1.480409950E-1
2.398124335E0,-6.383939981E-1,-6.184830070E-1,-4.021039903E-1
2.403146964E0,-3.379220068E-1,-5.083479881E-1,1.593099907E-2
2.408169572E0,-2.672399879E-1,-6.113510132E-1,-1.158860028E-1
2.413192055E0,-6.328259706E-1,-2.848590016E-1,1.949339956E-1
2.418214574E0,-3.963060081E-1,-3.578880131E-1,1.487199962E-1
2.423237160E0,-8.619790077E-1,-1.800920069E-1,1.744209975E-1
2.428259726E0,-6.801970005E-1,-2.583889961E-1,1.855559945E-1
2.433282197E0,-7.213230133E-1,-1.773979962E-1,4.782930017E-1
2.438304709E0,-6.813449860E-1,-1.465100050E-1,2.709969878E-1
2.443327336E0,-3.733179867E-1,-2.440550029E-1,1.027513027E0
2.448349933E0,-4.648199975E-1,-1.948010027E-1,7.147079706E-1
2.453372513E0,-3.813999891E-2,-3.383890092E-1,1.615391016E0
2.458395094E0,-1.355710030E-1,-2.198060006E-1,1.336163998E0
2.463417575E0,1.768700033E-2,-3.895429969E-1,1.869490981E0
2.468440089E0,2.859899960E-2,-3.203040063E-1,1.763046980E0
2.473462652E0,8.485600352E-2,-3.430129886E-1,1.711475015E0
2.478485217E0,-2.874900028E-2,-3.488419950E-1,1.854338050E0
2.483507841E0,2.579349875E-1,-4.240309894E-1,1.525586963E0
2.488530448E0,7.301700115E-2,-3.440879881E-1,1.565377951E0
2.493552931E0,6.267570257E-1,-5.397499800E-1,1.570376039E0
2.498575450E0,3.163419962E-1,-4.105210006E-1,1.518035054E0
2.503598020E0,1.012143016E0,-6.024640203E-1,1.795245051E0
2.508620586E0,6.688939929E-1,-4.905390143E-1,1.656566024E0
2.513643210E0,8.811789751E-1,-5.719630122E-1,2.079344988E0
2.518665817E0,8.689529896E-1,-5.152209997E-1,1.962399006E0
2.523688296E0,2.901900113E-1,-4.372200072E-1,2.078557014E0
2.528710815E0,5.493400097E-1,-4.286209941E-1,2.101591110E0
2.533733391E0,-2.861289978E-1,-2.079299986E-1,1.957465053E0
2.538755957E0,-3.945000097E-2,-2.532640100E-1,1.974393964E0
2.543778447E0,-3.856300116E-1,-2.262129933E-1,2.029541969E0
2.548800959E0,-2.439990044E-1,-1.218009964E-1,1.920560002E0
2.553823610E0,-4.381479919E-1,-2.151840031E-1,2.287576914E0
2.558846207E0,-2.350630015E-1,-1.597920060E-1,2.159919977E0
2.563868792E0,-5.319470167E-1,-1.487700045E-1,2.146801949E0
2.568891373E0,-4.003770053E-1,-1.070799977E-1,2.268161058E0
2.573913988E0,-3.417510092E-1,-8.043400198E-2,1.662853003E0
2.578936597E0,-3.452480137E-1,-6.159000099E-2,1.896723032E0
2.583959029E0,-4.144600034E-2,-1.322010010E-1,1.438384056E0
2.588981517E0,-1.782449931E-1,-2.589300089E-2,1.501428008E0
2.594004167E0,1.154680029E-1,-3.059670031E-1,1.509598970E0
2.599026760E0,5.159199983E-2,-1.170760021E-1,1.440289974E0
2.604049231E0,1.522890031E-1,-5.975689888E-1,1.913166046E0
2.609071748E0,8.666600287E-2,-2.602899969E-1,1.653691053E0
2.614094334E0,2.717539966E-1,-9.705730081E-1,2.543994904E0
2.619116899E0,1.975940019E-1,-5.840520263E-1,2.194652081E0
2.624139389E0,1.454380006E-1,-9.236099720E-1,3.237623930E0
2.629161901E0,1.780990064E-1,-7.066029906E-1,2.901123047E0
2.634184538E0,6.914000213E-2,-9.769489765E-1,3.503360987E0
2.639207135E0,9.867399931E-2,-7.097870111E-1,3.423775911E0
2.644229719E0,8.555500209E-2,-8.497760296E-1,3.027838945E0
2.649252300E0,8.605699986E-2,-7.550380230E-1,3.329369068E0
2.654274930E0,2.162680030E-1,-5.973839760E-1,2.034910917E0
2.659297539E0,1.792699993E-1,-5.887600183E-1,2.601603031E0
2.664320021E0,2.889159918E-1,-2.982540131E-1,1.152616978E0
2.669342541E0,2.081470042E-1,-3.715110123E-1,1.576392055E0
2.674365150E0,2.617259920E-1,-2.090799995E-2,7.037600130E-2
2.679387716E0,2.912110090E-1,-1.251430064E-1,6.427940130E-1
2.684410220E0,2.097209990E-1,1.826979965E-1,-9.180650115E-1
2.689432732E0,1.923059970E-1,4.770600051E-2,-4.485749900E-1
2.694455350E0,2.296900004E-1,3.710860014E-1,-1.784446955E0
2.699477947E0,1.898609996E-1,2.668339908E-1,-1.405817986E0
2.704500506E0,3.901639879E-1,4.120019972E-1,-2.315470934E0
2.709523087E0,2.181999981E-1,3.925600052E-1,-2.070457935E0
2.714545717E0,7.809929848E-1,3.470579982E-1,-2.156338930E0
2.719568326E0,5.439569950E-1,3.317349851E-1,-2.319438934E0
2.724590808E0,4.677160084E-1,3.529779911E-1,-1.623188972E0
2.729613328E0,5.575450063E-1,4.134599864E-1,-1.892053008E0
2.734635914E0,-4.295299947E-2,2.868419886E-1,-1.144796968E0
2.739658480E0,1.953299940E-1,3.275110126E-1,-1.393918991E0
2.744681094E0,-5.918300152E-1,2.791369855E-1,-5.450720191E-1
2.749703701E0,-2.882690132E-1,3.614239991E-1,-8.465390205E-1
2.754726184E0,-7.119870186E-1,2.001709938E-1,-1.793889999E-1
2.759748703E0,-6.108930111E-1,3.078790009E-1,-3.274689913E-1
2.764771280E0,-5.277730227E-1,1.858009994E-1,-1.591989994E-1
2.769793846E0,-5.491930246E-1,2.149859965E-1,-1.460880041E-1
2.774816340E0,-1.334879994E-1,3.930389881E-1,-6.310520172E-1
2.779838852E0,-2.232050002E-1,2.006119937E-1,-3.160519898E-1
2.784861455E0,5.947000161E-2,6.995069981E-1,-1.696046948E0
2.789884052E0,2.740000002E-2,4.108600020E-1,-1.131991029E0
2.794906647E0,1.665560007E-1,9.130669832E-1,-2.647851944E0
2.799929228E0,1.644629985E-1,6.024439931E-1,-2.211045027E0
2.804951718E0,3.510160148E-1,9.160709977E-1,-3.176403046E0
2.809974232E0,3.075740039E-1,6.509490013E-1,-2.972661972E0
2.814996818E0,9.856300056E-2,9.336649776E-1,-3.469755888E0
2.820019383E0,2.926790118E-1,6.084889770E-1,-3.313064098E0
2.825041883E0,-7.581599802E-2,7.707470059E-1,-3.604500055E0
2.830064395E0,8.578900248E-2,5.378360152E-1,-3.529308081E0
2.835087027E0,-3.426829875E-1,6.355900168E-1,-3.267996073E0
2.840109624E0,-7.349800318E-2,4.287370145E-1,-3.465440035E0
2.845132199E0,-4.954299927E-1,4.304879904E-1,-2.973581076E0
2.850154780E0,-3.133609891E-1,3.078429997E-1,-3.055027008E0
2.855177395E0,-3.331449926E-1,2.936350107E-1,-2.571362972E0
2.860200004E0,-3.023039997E-1,1.587599963E-1,-2.768563986E0
2.865222486E0,1.865079999E-1,1.379050016E-1,-2.027235985E0
2.870245006E0,-5.555799976E-2,8.920700103E-2,-2.259020090E0
2.875267587E0,4.151499867E-1,-8.838900179E-2,-1.444231033E0
2.880290153E0,2.906009853E-1,-1.025680006E-1,-1.773123026E0
2.885312777E0,4.857659936E-1,-2.257360071E-1,-9.399999976E-1
2.890335384E0,3.789019883E-1,-2.410040051E-1,-1.144430995E0
2.895357888E0,4.859220088E-1,-2.365179956E-1,-7.960050106E-1
2.900380407E0,4.207719862E-1,-3.134540021E-1,-8.311889768E-1
2.905403002E0,3.540430069E-1,-1.743409932E-1,-7.874490023E-1
2.910425568E0,4.085519910E-1,-2.812559903E-1,-7.784140110E-1
2.915448044E0,-8.675999939E-2,1.619900018E-2,-8.527629972E-1
2.920470556E0,1.831540018E-1,-1.899189949E-1,-7.947139740E-1
2.925493192E0,-3.108370006E-1,1.558700018E-2,-7.373390198E-1
2.930515788E0,-2.029719949E-1,-8.721899986E-2,-7.753919959E-1
2.935538378E0,-2.485200018E-1,3.370400146E-2,-3.562279940E-1
2.940560959E0,-2.051360011E-1,-5.209200084E-2,-5.260609984E-1
2.945583445E0,-3.941899911E-2,-2.747900039E-2,-4.341499880E-2
2.950605959E0,-9.979599714E-2,-5.548899993E-2,-1.626430005E-1
2.955628610E0,1.096099988E-1,-1.238400023E-2,1.943369955E-1
2.960651207E0,6.272800267E-2,-5.153999850E-2,6.716900319E-2
2.965673787E0,1.429850012E-1,-1.614820063E-1,5.041720271E-1
2.970696368E0,1.017479971E-1,-9.310899675E-2,2.934370041E-1
2.975718835E0,2.508080006E-1,-4.187270105E-1,1.128350019E0
2.980741349E0,1.353610009E-1,-2.118559927E-1,7.614369988E-1
2.985763971E0,2.339500040E-1,-5.872200131E-1,1.777009964E0
2.990786568E0,2.031529993E-1,-4.098770022E-1,1.459619045E0
2.995809148E0,1.320710033E-1,-7.906219959E-1,2.368228912E0
3.000831729E0,1.355870068E-1,-5.805569887E-1,2.033329964E0
3.005854234E0,4.893299937E-2,-8.668680191E-1,2.625718117E0
3.010876748E0,4.347600043E-2,-6.932970285E-1,2.526752949E0
3.015899334E0,-1.943580061E-1,-7.934290171E-1,2.611511946E0
3.020921899E0,-5.730799958E-2,-6.800559759E-1,2.610075951E0
3.025944508E0,-4.235289991E-1,-6.165519953E-1,2.299604893E0
3.030967115E0,-2.840310037E-1,-5.791029930E-1,2.451570034E0
3.035989589E0,-5.290290117E-1,-4.557060003E-1,2.136841059E0
3.041012108E0,-4.329600036E-1,-4.055469930E-1,2.186391115E0
3.046034689E0,-6.300839782E-1,-3.202899992E-1,2.080629110E0
3.051057255E0,-4.709860086E-1,-2.778919935E-1,2.079731941E0
3.056079730E0,-7.677900195E-1,-1.166020036E-1,1.820302963E0
3.061102242E0,-6.104919910E-1,-1.200029999E-1,1.983418941E0
3.066124864E0,-7.271929979E-1,5.651900172E-2,1.335962057E0
3.071147461E0,-6.421769857E-1,2.790600061E-2,1.551260948E0
3.076170017E0,-3.935190141E-1,4.506399855E-2,1.184633017E0
3.081192598E0,-5.348640084E-1,1.603679955E-1,1.186939001E0
3.086215213E0,2.115000039E-3,1.789700054E-2,1.490736961E0
3.091237822E0,-2.281910032E-1,1.703899950E-1,1.269812942E0
3.096260299E0,3.165810108E-1,-6.320750117E-1,2.513040066E0
3.101282819E0,1.056480035E-1,-1.095199957E-2,1.859905005E0
3.106305405E0,5.028299987E-2,-1.188784957E0,4.109175205E0
3.111327971E0,1.327590048E-1,-6.338300109E-1,3.273468971E0
3.116350466E0,-4.158770144E-1,-1.486526966E0,5.351473808E0
3.121372978E0,-3.044080138E-1,-9.711869955E-1,4.798122883E0
3.126395610E0,-5.670620203E-1,-1.573398948E0,5.653194904E0
3.131418206E0,-5.176519752E-1,-1.264799953E0,5.630057812E0
3.136440771E0,-7.643579841E-1,-1.164888978E0,4.862761021E0
3.141463352E0,-6.227909923E-1,-1.191359043E0,5.395340919E0
3.146485833E0,-5.852440000E-1,-7.387250066E-1,3.495625973E0
3.151508347E0,-7.468280196E-1,-7.884119749E-1,4.155491829E0
3.156530934E0,-2.455430031E-1,-2.096460015E-1,1.987691045E0
3.161553499E0,-3.553580046E-1,-5.045179725E-1,2.767501116E0
3.166576123E0,1.144770011E-1,2.099169940E-1,4.707579911E-1
3.171598730E0,-1.824450046E-1,1.677200012E-2,1.178938985E0
3.176621228E0,3.105590045E-1,4.212839901E-1,-5.108510256E-1
3.181643747E0,1.520889997E-1,2.288099974E-1,-1.524100006E-1
3.186666378E0,1.873710006E-1,4.720560014E-1,-8.868309855E-1
3.191688976E0,8.338899910E-2,4.060060084E-1,-7.322630286E-1
3.196711545E0,1.869600080E-2,4.014059901E-1,-1.053084970E0
3.201734127E0,-7.659299672E-2,3.960390091E-1,-1.009165049E0
3.206756608E0,-4.221500084E-2,2.502000034E-1,-9.240670204E-1
3.211779122E0,-1.887309998E-1,3.764179945E-1,-1.037222028E0
3.216801717E0,-1.025199983E-2,1.124819964E-1,-5.401239991E-1
3.221824282E0,-1.280850023E-1,2.701170146E-1,-7.582870126E-1
3.226846897E0,-1.062289998E-1,-5.025099963E-2,1.027719975E-1
3.231869504E0,-7.394500077E-2,1.324409992E-1,-2.211740017E-1
3.236891987E0,-3.274610043E-1,-9.340500087E-2,5.893909931E-1
3.241914506E0,-1.754969954E-1,4.644599929E-2,4.030300081E-1
3.246937092E0,-4.724690020E-1,8.453999646E-3,5.756850243E-1
3.251959658E0,-2.868370116E-1,3.153000027E-3,6.394699812E-1
3.256982162E0,-5.280569792E-1,1.879329979E-1,1.457020044E-1
3.262004674E0,-4.453310072E-1,1.339929998E-1,3.617680073E-1
3.267027306E0,-4.753470123E-1,3.696730137E-1,-6.046599746E-1
3.272049903E0,-3.602100015E-1,1.822820008E-1,-1.616149992E-1
3.277072478E0,-3.891850114E-1,6.330279708E-1,-1.649992943E0
3.282095059E0,-3.671900034E-1,3.692669868E-1,-1.108919024E0
3.287117560E0,-1.066889986E-1,7.128859758E-1,-2.625675917E0
3.292140074E0,-2.087800056E-1,4.991210103E-1,-2.166688919E0
3.297162710E0,-6.215000153E-2,7.459149957E-1,-3.107126951E0
3.302185307E0,-7.628200203E-2,4.577560127E-1,-2.879595995E0
3.307207887E0,3.173699975E-2,6.342459917E-1,-3.778882980E0
3.312230468E0,-4.970899969E-2,4.487429857E-1,-3.412923098E0
3.317252959E0,5.238299817E-2,5.470830202E-1,-4.228957176E0
3.322275473E0,-4.046999849E-3,2.608850002E-1,-4.022554874E0
3.327298099E0,7.330700010E-2,3.092060089E-1,-4.339099884E0
3.332320696E0,-1.171499956E-2,1.675350070E-1,-4.297164917E0
3.337343261E0,1.548160017E-1,-2.915400080E-2,-4.042057991E0
3.342365842E0,2.203500085E-2,-1.273230016E-1,-4.174305916E0
3.347388328E0,-8.630000055E-3,-5.878999829E-2,-3.741621971E0
3.352410842E0,3.863000125E-2,-2.200579941E-1,-3.866060019E0
3.357433470E0,-2.008060068E-1,-1.037330031E-1,-3.603740931E0
3.362456067E0,-1.235999987E-1,-2.444110066E-1,-3.591598034E0
3.367478651E0,-3.062529862E-1,-1.819700003E-1,-3.179042101E0
3.372501232E0,-2.324970067E-1,-2.858400047E-1,-3.490592003E0
3.377523713E0,-4.101170003E-1,-2.093739957E-1,-2.492240906E0
3.382546227E0,-2.991099954E-1,-3.183929920E-1,-2.814529896E0
3.387568814E0,-5.189710259E-1,-2.715499997E-1,-1.771939993E0
3.392591379E0,-3.735600114E-1,-3.213700056E-1,-2.138811111E0
3.397614018E0,-5.622699857E-1,-2.562260032E-1,-1.144186974E0
3.402636625E0,-4.802159965E-1,-3.148730099E-1,-1.426018000E0
3.407659108E0,-5.962579846E-1,-1.815470010E-1,-6.512349844E-1
3.412681627E0,-5.109199882E-1,-2.512769997E-1,-8.772209883E-1
3.417704213E0,-5.623720288E-1,-1.652629972E-1,-2.123309970E-1
3.422726779E0,-5.272340178E-1,-1.985139996E-1,-3.931159973E-1
3.427749397E0,-2.721650004E-1,-1.592900008E-1,2.515299991E-2
3.432772004E0,-4.390110075E-1,-1.893450022E-1,-9.348200262E-2
3.437794497E0,1.748899966E-1,-2.671410143E-1,3.553580046E-1
3.442817016E0,-9.123200178E-2,-2.312619984E-1,1.906509995E-1
3.447839606E0,4.530949891E-1,-3.352299929E-1,6.307079792E-1
3.452862172E0,2.370200008E-1,-2.962400019E-1,5.174160004E-1
3.457884816E0,6.402429938E-1,-4.476909935E-1,7.455840111E-1
3.462907423E0,4.165819883E-1,-3.739689887E-1,6.983669996E-1
3.467929910E0,7.310749888E-1,-4.979450107E-1,7.745869756E-1
3.472952429E0,5.597389936E-1,-4.239310026E-1,8.014659882E-1
3.477975015E0,6.958140135E-1,-5.743910074E-1,7.405160069E-1
3.482997581E0,6.179019809E-1,-5.081160069E-1,7.588359714E-1
3.488020071E0,5.640599728E-1,-6.467900276E-1,8.636339903E-1
3.493042583E0,4.963180125E-1,-5.158619881E-1,7.495589852E-1
3.498065215E0,4.113259912E-1,-6.750100255E-1,1.147003055E0
3.503087812E0,4.408819973E-1,-5.935130119E-1,1.003574014E0
3.508110397E0,3.797549903E-1,-7.624440193E-1,1.443246007E0
3.513132978E0,3.462350070E-1,-5.879679918E-1,1.316264987E0
3.518155588E0,2.049659938E-1,-7.898160219E-1,1.780483961E0
3.523178196E0,2.914899886E-1,-6.173549891E-1,1.514755011E0
3.528200684E0,-1.153030023E-1,-8.101729751E-1,2.595280886E0
3.533223203E0,1.007679999E-1,-6.082670093E-1,2.178817034E0
3.538245803E0,-2.589130104E-1,-8.810719848E-1,3.416594028E0
3.543268369E0,-1.711360067E-1,-6.422680020E-1,3.007932901E0
3.548290859E0,-1.731929928E-1,-8.919919729E-1,3.765017986E0
3.553313371E0,-1.545200050E-1,-7.359150052E-1,3.652544022E0
3.558336013E0,-2.510870099E-1,-6.336709857E-1,3.354127884E0
3.563358610E0,-1.211740002E-1,-7.040039897E-1,3.634834051E0
3.568381170E0,-2.318789959E-1,-4.067380130E-1,2.310187101E0
3.573403751E0,-2.346390039E-1,-4.539330006E-1,2.875222921E0
3.578426352E0,-1.565089971E-1,-1.675300002E-1,1.036290050E0
3.583448961E0,-1.406549960E-1,-2.711589932E-1,1.683462024E0
3.588471388E0,3.460500017E-2,-8.468899876E-2,1.615300030E-2
3.593493876E0,-9.007000178E-2,-1.076089963E-1,4.918569922E-1
3.598516512E0,1.532039940E-1,-9.775300324E-2,-3.898609877E-1
3.603539105E0,9.160099924E-2,-7.929699868E-2,-3.326590061E-1
3.608561586E0,8.507599682E-2,-3.871760070E-1,-6.583999842E-3
3.613584103E0,5.794499815E-2,-7.194100320E-2,-2.857030034E-1
3.618606703E0,-1.015409976E-1,-8.138530254E-1,9.354259968E-1
3.623629269E0,5.989100039E-2,-3.835250139E-1,4.093390107E-1
3.628651892E0,-4.628570080E-1,-1.014014006E0,2.161596060E0
3.633674499E0,-2.176250070E-1,-5.879899859E-1,1.489923954E0
3.638696982E0,-6.741189957E-1,-1.191185951E0,3.192930937E0
3.643719501E0,-4.341570139E-1,-7.945200205E-1,2.713006020E0
3.648742077E0,-7.686179876E-1,-1.162785053E0,3.560760021E0
3.653764643E0,-5.254139900E-1,-9.213929772E-1,3.476962090E0
3.658787263E0,-8.803759813E-1,-8.441770077E-1,3.194081068E0
3.663809870E0,-6.398530006E-1,-8.676170111E-1,3.494261026E0
3.668832353E0,-7.599130273E-1,-3.964700103E-1,2.174309969E0
3.673854872E0,-7.070389986E-1,-4.681650102E-1,2.754856110E0
3.678877457E0,-1.246360019E-1,-2.134199999E-2,7.639780045E-1
3.683900023E0,-3.277300000E-1,-1.908389926E-1,1.514428973E0
3.688922647E0,5.630660057E-1,2.966270149E-1,-4.112299979E-1
3.693945254E0,1.935839951E-1,1.171879992E-1,1.390369982E-1
3.698967718E0,9.063799977E-1,5.406399965E-1,-1.176332951E0
3.703990237E0,6.985170245E-1,3.583300114E-1,-8.720769882E-1
3.709012838E0,5.612149835E-1,7.426170111E-1,-1.561702013E0
3.714035404E0,6.449390054E-1,5.754759908E-1,-1.397264004E0
3.719058027E0,1.846269965E-1,8.053370118E-1,-1.846794009E0
3.724080634E0,2.272599936E-1,7.439900041E-1,-1.752693057E0
3.729103116E0,-1.860200055E-2,7.350140214E-1,-1.705824971E0
3.734125635E0,5.996999890E-2,6.885439754E-1,-1.842916965E0
3.739148217E0,-1.353629977E-1,7.356060147E-1,-1.249477029E0
3.744170783E0,-6.783299893E-2,7.040650249E-1,-1.513017058E0
3.749193273E0,4.188099876E-2,6.647019982E-1,-6.918110251E-1
3.754215785E0,-3.961199895E-2,7.250940204E-1,-9.550759792E-1
3.759238407E0,1.947769970E-1,6.014479995E-1,-2.008520067E-1
3.764261004E0,1.258109957E-1,6.410800219E-1,-4.354709983E-1
3.769283579E0,1.953739971E-1,7.150750160E-1,-6.208400056E-2
3.774306160E0,2.261819988E-1,6.132979989E-1,-8.642099798E-2
3.779328785E0,2.522889972E-1,8.074250221E-1,-2.448260039E-1
3.784351394E0,1.946299970E-1,6.773089767E-1,-1.377149969E-1
3.789373890E0,5.278419852E-1,8.843550086E-1,-6.168649793E-1
3.794396410E0,3.725869954E-1,6.573709846E-1,-3.465909958E-1
3.799419001E0,5.818979740E-1,1.007837057E0,-1.447540998E0
3.804441567E0,5.064460039E-1,7.781299949E-1,-1.026666999E0
3.809464042E0,6.067540050E-1,9.511629939E-1,-2.182706118E0
3.814486554E0,5.261319876E-1,7.181640267E-1,-1.815415978E0
3.819509167E0,3.834089935E-1,1.090978980E0,-2.802668095E0
3.824531763E0,4.518260062E-1,7.132300138E-1,-2.461982965E0
3.829554324E0,1.811999977E-1,9.629399776E-1,-3.371958971E0
3.834576905E0,2.785769999E-1,6.594060063E-1,-3.091245890E0
3.839599391E0,5.313299969E-2,6.710749865E-1,-3.410608053E0
3.844621905E0,1.191359982E-1,5.056260228E-1,-3.440879107E0
3.849644492E0,-6.237300113E-2,3.262000084E-1,-2.790961027E0
3.854667057E0,6.861799955E-2,2.559500039E-1,-3.117789984E0
3.859689666E0,-2.716690004E-1,5.645500124E-2,-2.226030111E0
3.864712273E0,-5.376600102E-2,1.132499985E-2,-2.449758053E0
3.869734742E0,-2.667919993E-1,-1.573410034E-1,-1.700008988E0
3.874757261E0,-1.826169938E-1,-1.664119959E-1,-1.942370057E0
3.879779866E0,-1.828009933E-1,-2.199009955E-1,-1.294350028E0
3.884802432E0,-1.738020033E-1,-2.831659913E-1,-1.443897009E0
3.889824908E0,2.643690109E-1,-2.727499902E-1,-1.355484962E0
3.894847420E0,4.483800009E-2,-3.053480089E-1,-1.252951980E0
3.899870052E0,6.867200136E-1,-2.479790002E-1,-1.434762955E0
3.904892649E0,4.388340116E-1,-3.895010054E-1,-1.416970968E0
3.909915219E0,7.876899838E-1,-1.689340025E-1,-1.468021035E0
3.914937800E0,7.058820128E-1,-3.058640063E-1,-1.423220038E0
3.919960410E0,4.215889871E-1,-2.272740006E-1,-1.347568989E0
3.924983018E0,5.643380284E-1,-2.899039984E-1,-1.415897012E0
3.930005496E0,-1.779600047E-2,-3.395810127E-1,-1.097615004E0
3.935028015E0,1.919230074E-1,-3.729709983E-1,-1.215525985E0
3.940050592E0,-2.359679937E-1,-4.196760058E-1,-7.645840049E-1
3.945073158E0,-1.015980020E-1,-4.201520085E-1,-9.402269721E-1
3.950095639E0,-2.861459851E-1,-4.765579998E-1,-5.075160265E-1
3.955118151E0,-2.089799941E-1,-4.543060064E-1,-5.887640119E-1
3.960140768E0,-3.425709903E-1,-4.975509942E-1,-3.154099882E-1
3.965163365E0,-2.276140004E-1,-4.946649969E-1,-4.376580119E-1
3.970185921E0,-2.417909950E-1,-4.950410128E-1,-6.008400023E-2
3.975208502E0,-2.452899963E-1,-4.550319910E-1,-1.835860014E-1
3.980231122E0,-1.767580062E-1,-5.330950022E-1,3.300909996E-1
3.985253731E0,-1.507869959E-1,-4.424880147E-1,8.403699845E-2
3.990276208E0,-6.636200100E-2,-7.100039721E-1,1.185225010E0
3.995298728E0,-1.606000066E-1,-4.533190131E-1,6.024910212E-1
4.000321324E0,1.625880003E-1,-9.182000160E-1,2.306050062E0
4.005343890E0,6.098200008E-2,-6.715499759E-1,1.779994011E0
4.010366518E0,7.020399719E-2,-9.793999791E-1,2.961055994E0
4.015389125E0,1.438650042E-1,-7.385900021E-1,2.670207024E0
4.020411612E0,-2.369890064E-1,-8.107039928E-1,3.002712965E0
4.025434131E0,-7.208800316E-2,-7.441200018E-1,2.968069077E0
4.030456727E0,-4.884490073E-1,-7.429440022E-1,3.014244080E0
4.035479293E0,-3.387430012E-1,-6.074420214E-1,2.993386984E0
4.040501783E0,-6.131410003E-1,-5.880219936E-1,3.075051069E0
4.045524295E0,-4.600180089E-1,-5.397959948E-1,3.019720078E0
4.050546908E0,-5.303630233E-1,-4.130110145E-1,3.120796919E0
4.055569505E0,-5.533000231E-1,-3.659780025E-1,3.075647116E0
4.060592080E0,-2.875779867E-1,-2.968629897E-1,2.730223894E0
4.065614661E0,-3.143019974E-1,-3.044529855E-1,3.038876057E0
4.070637147E0,-4.896659851E-1,1.350550056E-1,2.054836988E0
4.075659661E0,-2.860800028E-1,-8.113200217E-2,2.374977112E0
4.080682248E0,-6.907849908E-1,5.800430179E-1,1.369722009E0
4.085704813E0,-5.349599719E-1,3.569769859E-1,1.743846059E0
4.090727293E0,-5.666499734E-1,8.160809875E-1,5.996170044E-1
4.095749805E0,-6.371939778E-1,6.163740158E-1,9.989269972E-1
4.100772451E0,-2.278829962E-1,6.926509738E-1,5.410140157E-1
4.105795048E0,-3.976800144E-1,7.059599757E-1,4.846149981E-1
4.110817628E0,-4.774500057E-2,1.878020018E-1,1.195490003E0
4.115840209E0,-1.513620019E-1,5.272459984E-1,7.318930030E-1
4.120862829E0,8.540699631E-2,-5.871750116E-1,2.122596979E0
4.125885437E0,-6.186300144E-2,-7.484000176E-3,1.639024973E0
4.130907930E0,-1.543139964E-1,-1.138226986E0,3.160136938E0
4.135930449E0,-1.043599993E-1,-6.148499846E-1,2.592760086E0
4.140953064E0,-5.702430010E-1,-1.340978026E0,4.189634800E0
4.145975630E0,-4.376829863E-1,-8.860120177E-1,3.690116882E0
4.150998254E0,-8.888859749E-1,-1.479997993E0,4.723502159E0
4.156020861E0,-7.812640071E-1,-1.136482000E0,4.528903961E0
4.161043349E0,-1.119987965E0,-1.286231041E0,4.629705906E0
4.166065868E0,-1.032294035E0,-1.155470014E0,4.730788231E0
4.171088468E0,-1.079879999E0,-9.376969934E-1,3.856019020E0
4.176111034E0,-1.143635035E0,-9.703050256E-1,4.332536221E0
4.181133658E0,-4.329369962E-1,-6.646310091E-1,2.479417086E0
4.186156265E0,-9.237589836E-1,-7.302079797E-1,3.205406904E0
4.191178767E0,4.308339953E-1,-2.416640073E-1,1.272560000E0
4.196201286E0,-8.833199739E-2,-4.595710039E-1,1.864210010E0
4.201223877E0,6.164379716E-1,5.236500129E-2,2.984830141E-1
4.206246443E0,3.189330101E-1,-7.740399987E-2,7.482579947E-1
4.211268943E0,4.687690139E-1,2.518959939E-1,-4.974269867E-1
4.216291455E0,3.175460100E-1,6.726399809E-2,-9.435199946E-2
4.221314082E0,3.596000075E-1,4.752250016E-1,-1.128823042E0
4.226336678E0,1.490519941E-1,3.190999925E-1,-8.449370265E-1
4.231359267E0,3.633660078E-1,3.926840127E-1,-1.530717969E0
4.236381848E0,1.362790018E-1,4.027869999E-1,-1.381582022E0
4.241404473E0,2.709729970E-1,2.774100006E-1,-1.377432942E0
4.246427082E0,2.051250041E-1,3.316259980E-1,-1.483158946E0
4.251449550E0,3.188399971E-2,1.120949984E-1,-9.817739725E-1
4.256472070E0,9.392400086E-2,2.199759930E-1,-1.194128036E0
4.261494675E0,-4.231980145E-1,2.995200083E-2,-3.889839947E-1
4.266517241E0,-1.354700029E-1,1.604160070E-1,-7.089130282E-1
4.271539745E0,-6.291679740E-1,-1.196589991E-1,-2.136700042E-2
4.276562257E0,-4.207170010E-1,-9.794999845E-3,-1.508280039E-1
4.281584875E0,-8.217070103E-1,-9.330599755E-2,-8.240500093E-2
4.286607472E0,-5.486540198E-1,-1.107669994E-1,1.350800041E-2
4.291630056E0,-8.636940122E-1,-1.329999999E-3,-6.165840030E-1
4.296652637E0,-6.834669709E-1,-8.189299703E-2,-3.013949990E-1
4.301675133E0,-6.706510186E-1,9.781699628E-2,-1.442906976E0
4.306697647E0,-6.895099878E-1,-5.713700131E-2,-1.022639036E0
4.311720210E0,-2.811279893E-1,2.596449852E-1,-2.303926945E0
4.316742775E0,-4.220960140E-1,6.802999880E-3,-1.892910957E0
4.321765418E0,-4.902200028E-2,2.923600078E-1,-3.088149071E0
4.326788024E0,-1.454930007E-1,7.432100177E-2,-2.690517902E0
4.331810507E0,2.001879960E-1,2.808749974E-1,-3.489780903E0
4.336833026E0,-3.079099953E-2,1.700299978E-2,-3.273998976E0
4.341855652E0,4.096049964E-1,1.898680031E-1,-3.947308064E0
4.346878250E0,1.351920068E-1,-4.587399960E-2,-3.725265980E0
4.351900829E0,3.756029904E-1,2.177910060E-1,-4.010281086E0
4.356923411E0,2.614420056E-1,-1.081980020E-1,-3.953445911E0
4.361945868E0,6.858199835E-2,7.748500258E-2,-3.983580112E0
4.366968382E0,6.346900016E-2,-7.630199939E-2,-4.004605770E0
4.371990950E0,-3.288570046E-1,-2.530799992E-2,-3.489955902E0
4.377013515E0,-1.207310036E-1,-2.302190065E-1,-3.757755041E0
4.382036134E0,-7.270249724E-1,-1.401779950E-1,-2.727567911E0
4.387058741E0,-4.862700105E-1,-2.780730128E-1,-3.063532114E0
4.392081234E0,-8.271819949E-1,-1.281969994E-1,-2.329760075E0
4.397103753E0,-6.171630025E-1,-2.883810103E-1,-2.419107914E0
4.402126339E0,-7.733240128E-1,-1.237770021E-1,-2.020529032E0
4.407148905E0,-6.593930125E-1,-2.651909888E-1,-2.154093981E0
4.412171528E0,-5.659049749E-1,-1.534570009E-1,-1.517663956E0
4.417194135E0,-5.492380261E-1,-2.515079975E-1,-1.783967018E0
4.422216618E0,-4.047209918E-1,-1.490370035E-1,-9.605770111E-1
4.427239138E0,-4.150289893E-1,-2.531799972E-1,-1.144075036E0
4.432261777E0,-3.230339885E-1,-1.852869987E-1,-7.082309723E-1
4.437284375E0,-3.101539910E-1,-2.071180046E-1,-8.499040008E-1
4.442306939E0,-1.334390044E-1,-2.513290048E-1,-5.122489929E-1
4.447329521E0,-2.147330046E-1,-2.733649909E-1,-5.725759864E-1
4.452351988E0,2.142800018E-2,-3.721590042E-1,5.367700011E-2
4.457374502E0,-1.234230027E-1,-3.259280026E-1,-2.499600053E-1
4.462397104E0,2.486490011E-1,-6.231499910E-1,6.959699988E-1
4.467419669E0,5.846999958E-2,-4.751180112E-1,3.437309861E-1
4.472442149E0,3.507910073E-1,-7.954229712E-1,1.202957988E0
4.477464661E0,2.205709964E-1,-6.525099874E-1,9.933180213E-1
4.482487283E0,5.566400290E-1,-8.006060123E-1,1.316830039E0
4.487509880E0,3.687579930E-1,-7.108119726E-1,1.305570960E0
4.492532450E0,5.324149728E-1,-6.798580289E-1,1.073228955E0
4.497555031E0,4.301959872E-1,-6.612010002E-1,1.214025974E0
4.502577627E0,3.826180100E-1,-5.520849824E-1,6.856909990E-1
4.507600236E0,4.116660058E-1,-5.425890088E-1,8.660479784E-1
4.512622699E0,1.514620036E-1,-4.539819956E-1,6.901170015E-1
4.517645219E0,2.226659954E-1,-4.324820042E-1,5.969820023E-1
4.522667804E0,1.834480017E-1,-5.338730216E-1,1.020378947E0
4.527690370E0,1.449770033E-1,-3.998320103E-1,8.068410158E-1
4.532712860E0,2.957920134E-1,-7.347919941E-1,1.555055022E0
4.537735372E0,2.520749867E-1,-4.717229903E-1,1.249822974E0
4.542758023E0,5.567400157E-2,-7.712159753E-1,2.263569117E0
4.547780620E0,2.121369988E-1,-6.228489876E-1,1.884392023E0
4.552803214E0,-9.741999954E-2,-7.691069841E-1,2.735692978E0
4.557825795E0,-4.010200128E-2,-5.826500058E-1,2.482991934E0
4.562848395E0,8.908300102E-2,-7.477340102E-1,2.905263901E0
4.567871004E0,-2.025499940E-2,-5.960909724E-1,2.822487116E0
4.572893486E0,4.157679975E-1,-5.470169783E-1,2.795401096E0
4.577916006E0,2.299199998E-1,-5.482739806E-1,2.915745974E0
4.582938607E0,6.680330038E-1,-3.588640094E-1,1.841866970E0
4.587961173E0,4.743140042E-1,-3.977650106E-1,2.396940947E0
4.592983648E0,7.758150101E-1,-1.659120023E-1,5.943179727E-1
4.598006160E0,6.073700190E-1,-2.134100050E-1,1.256616950E0
4.603028792E0,8.004230261E-1,-6.189100072E-2,-3.498820066E-1
4.608051389E0,6.951239705E-1,-4.728500172E-2,6.885000318E-2
4.613073964E0,6.534500122E-1,-1.270360053E-1,-7.301589847E-1
4.618096545E0,6.625549793E-1,-2.370700054E-2,-6.185100079E-1
4.623119156E0,2.237789929E-1,-3.079479933E-1,-9.667299688E-2
4.628141764E0,4.149090052E-1,-3.423500061E-2,-5.687770247E-1
4.633164247E0,-1.276129931E-1,-5.658900142E-1,1.182396054E0
4.638186766E0,1.616899967E-1,-1.945230067E-1,4.997380078E-1
4.643209352E0,-5.234469771E-1,-6.338729858E-1,2.244167089E0
4.648231918E0,-2.401389927E-1,-2.873359919E-1,1.704215050E0
4.653254417E0,-4.677290022E-1,-5.437729955E-1,2.913559914E0
4.658276929E0,-2.923949957E-1,-3.380390108E-1,2.604058027E0
4.663299552E0,-2.837900072E-2,-3.897329867E-1,3.237245083E0
4.668322149E0,-9.712699801E-2,-2.324550003E-1,3.138434887E0
4.673344733E0,9.989099950E-2,-8.630699664E-2,2.772901058E0
4.678367314E0,1.895139962E-1,-1.110209972E-1,3.090928078E0
4.683389800E0,8.642400056E-2,2.134339958E-1,1.692806005E0
4.688412314E0,1.243399978E-1,1.079019979E-1,2.293499947E0
4.693434901E0,2.581250072E-1,5.191749930E-1,3.636600077E-1
4.698457466E0,1.463689953E-1,3.210389912E-1,1.045583963E0
4.703480090E0,4.956359863E-1,7.951679826E-1,-8.796539903E-1
4.708502697E0,3.442539871E-1,5.788980126E-1,-3.002919853E-1
4.713525166E0,4.820840061E-1,8.677290082E-1,-1.739073992E0
4.718547685E0,4.087409973E-1,7.481279969E-1,-1.381628036E0
4.723570270E0,7.999920249E-1,6.852239966E-1,-1.816673994E0
4.728592836E0,5.359089971E-1,7.542099953E-1,-1.924450994E0
4.733615306E0,5.329419971E-1,5.196400285E-1,-1.041810989E0
4.738637818E0,6.521630287E-1,6.260489821E-1,-1.519528031E0
4.743660455E0,4.571000114E-3,3.637740016E-1,-4.832279980E-1
4.748683052E0,3.008260131E-1,5.221819878E-1,-6.903250217E-1
4.753705642E0,-3.721570075E-1,1.861090064E-1,3.010590076E-1
4.758728223E0,-8.307400346E-2,3.592160046E-1,-1.388680041E-1
4.763750709E0,-7.573329806E-1,2.137870044E-1,1.086516023E0
4.768773223E0,-4.244399965E-1,3.389059901E-1,7.380689979E-1
4.773795836E0,-8.627030253E-1,1.626249999E-1,1.551797986E0
4.778818433E0,-6.579149961E-1,2.365709990E-1,1.389101028E0
4.783841023E0,-5.523489714E-1,3.609260023E-1,1.291316986E0
4.788863604E0,-5.826380253E-1,2.412369996E-1,1.516371012E0
4.793886080E0,-1.244700029E-1,6.163949966E-1,3.362550139E-1
4.798908594E0,-2.422049940E-1,3.995110095E-1,8.567780256E-1
4.803931240E0,3.736459911E-1,7.641500235E-1,-8.125849962E-1
4.808953837E0,1.628790051E-1,5.059670210E-1,-2.400819957E-1
4.813976412E0,5.031939745E-1,9.725279808E-1,-1.856603026E0
4.818998993E0,4.087570012E-1,5.954070091E-1,-1.324687004E0
4.824021494E0,6.237639785E-1,1.066966057E0,-2.979266882E0
4.829044008E0,5.052300096E-1,6.885039806E-1,-2.383229971E0
4.834066634E0,5.883529782E-1,1.035799026E0,-3.847069979E0
4.839089231E0,5.069310069E-1,6.429579854E-1,-3.438391924E0
4.844111820E0,2.923730016E-1,8.166329861E-1,-4.344075203E0
4.849134401E0,3.731049895E-1,4.556699991E-1,-4.093505859E0
4.854156882E0,-1.108779982E-1,5.357810259E-1,-4.244682789E0
4.859179396E0,5.709699914E-2,2.532840073E-1,-4.309425831E0
4.864201983E0,-3.371050060E-1,3.468500078E-2,-3.594563007E0
4.869224548E0,-1.186930016E-1,-1.798000000E-2,-3.943906069E0
4.874247172E0,-5.078129768E-1,-2.359320074E-1,-2.665597916E0
4.879269779E0,-2.741410136E-1,-3.235650063E-1,-3.129734039E0
4.884292272E0,-5.311329961E-1,-4.818280041E-1,-1.965276957E0
4.889314791E0,-3.569450080E-1,-4.641740024E-1,-2.225569963E0
4.894337422E0,-5.094919801E-1,-4.936240017E-1,-1.457461953E0
4.899360020E0,-3.846989870E-1,-5.566869974E-1,-1.700463057E0
4.904382603E0,-3.201099932E-1,-3.281199932E-1,-1.233474016E0
4.909405185E0,-3.265869915E-1,-5.159900188E-1,-1.222403049E0
4.914427662E0,-3.986499831E-2,-2.118790001E-1,-1.422906041E0
4.919450176E0,-1.369059980E-1,-4.044319987E-1,-1.306301951E0
4.924472746E0,1.531919986E-1,-5.689299852E-2,-1.290220976E0
4.929495311E0,8.937899768E-2,-3.085570037E-1,-1.329205036E0
4.934517935E0,2.438309938E-1,6.394899637E-2,-1.237522006E0
4.939540542E0,1.550849974E-1,-1.495849937E-1,-1.214568973E0
4.944563025E0,2.735739946E-1,7.224199921E-2,-1.113788962E0
4.949585544E0,2.059500068E-1,-5.030100048E-2,-1.198570967E0
4.954608140E0,1.091789976E-1,3.640300035E-2,-7.500209808E-1
4.959630706E0,1.708350033E-1,-7.563199848E-2,-8.838480115E-1
4.964653196E0,1.272320002E-1,-1.130969971E-1,-2.188290060E-1
4.969675708E0,9.544800222E-2,-5.679300055E-2,-5.107949972E-1
4.974698350E0,3.578470051E-1,-4.061389863E-1,5.389540195E-1
4.979720947E0,1.934269965E-1,-2.424129993E-1,1.266019940E-1
4.984743522E0,2.660909891E-1,-5.125730038E-1,1.366996050E0
4.989766103E0,3.174250126E-1,-3.652769923E-1,9.247990251E-1
4.994788722E0,2.754000016E-2,-6.470429897E-1,2.026515007E0
4.999811331E0,1.510560066E-1,-4.704940021E-1,1.695098996E0
5.004833823E0,-2.267670035E-1,-6.278070211E-1,2.313586950E0
5.009856343E0,-8.325699717E-2,-5.077930093E-1,2.167171955E0
5.014878900E0,-2.616080046E-1,-5.761049986E-1,2.474919081E0
5.019901466E0,-2.230679989E-1,-4.708920121E-1,2.377127886E0
5.024923951E0,-2.136570066E-1,-5.432639718E-1,2.526648045E0
5.029946463E0,-2.412260026E-1,-4.478960037E-1,2.476208925E0
5.034969095E0,-7.892499864E-2,-5.329489708E-1,2.452369928E0
5.039991691E0,-1.605300009E-1,-4.529860020E-1,2.453311920E0
5.045014290E0,-2.793700062E-2,-5.025600195E-1,2.379633904E0
5.050036871E0,-5.206799880E-2,-4.198229909E-1,2.364908934E0
5.055059357E0,-1.131649986E-1,-4.852269888E-1,2.485924006E0
5.060081871E0,-7.141000032E-2,-3.808619976E-1,2.402339935E0
5.065104449E0,4.144100100E-2,-4.709360003E-1,2.730465889E0
5.070127014E0,-6.233200058E-2,-3.633329868E-1,2.539514065E0
5.075149638E0,-7.585699856E-2,-3.265820146E-1,2.660976887E0
5.080172245E0,9.111499786E-2,-3.661029935E-1,2.757642984E0
5.085194752E0,-6.708139777E-1,1.308729947E-1,1.999353051E0
5.090217271E0,-2.685370147E-1,-7.369799912E-2,2.357842922E0
5.095239866E0,-9.678500295E-1,4.179019928E-1,1.379484057E0
5.100262432E0,-7.571579814E-1,2.975440025E-1,1.669564009E0
5.105285042E0,-5.348340273E-1,4.458099902E-1,7.983570099E-1
5.110307649E0,-6.740909815E-1,3.763220012E-1,1.072553992E0
5.115330142E0,7.571999915E-3,2.741500139E-1,7.964249849E-1
5.120352661E0,-1.998270005E-1,3.792150021E-1,6.832780242E-1
5.125375231E0,-8.631000295E-3,-3.434439898E-1,1.545915008E0
5.130397797E0,-4.352499917E-2,1.490599960E-1,1.056874990E0
5.135420412E0,-1.748680025E-1,-1.128973961E0,2.672679901E0
5.140443019E0,-2.026309967E-1,-5.282790065E-1,2.026030064E0
5.145465501E0,-3.881259859E-1,-1.521016955E0,3.804234982E0
5.150488020E0,-4.230929911E-1,-9.922009706E-1,3.213219881E0
5.155510597E0,-4.090659916E-1,-1.736039042E0,4.404816151E0
5.160533163E0,-5.059909821E-1,-1.312320948E0,4.132125854E0
5.165555653E0,-4.475280046E-1,-1.605492949E0,4.241610050E0
5.170578165E0,-4.727689922E-1,-1.431918979E0,4.401311874E0
5.175600788E0,-6.034410000E-1,-1.243813992E0,3.030939102E0
5.180623385E0,-5.452539921E-1,-1.240141034E0,3.737788916E0
5.185645941E0,-5.339540243E-1,-8.870080113E-1,1.424502015E0
5.190668522E0,-6.536160111E-1,-9.230999947E-1,2.231194019E0
5.195691156E0,-4.014500082E-1,-5.274320245E-1,-1.363690048E-1
5.200713765E0,-4.212189913E-1,-6.515820026E-1,5.980119705E-1
5.205736211E0,-5.341599882E-2,-2.398300022E-1,-1.553565979E0
5.210758699E0,-3.502140045E-1,-3.111380041E-1,-8.577460051E-1
5.215781335E0,6.726319790E-1,-5.078899860E-2,-2.529814005E0
5.220803928E0,1.465760022E-1,-1.663160026E-1,-2.106834888E0
5.225826413E0,9.119399786E-1,1.327620000E-1,-2.808135986E0
5.230848930E0,5.831660032E-1,5.113099888E-2,-2.753990889E0
5.235871557E0,5.470150113E-1,-1.025499962E-2,-2.588200092E0
5.240894154E0,4.274689853E-1,1.661199927E-1,-2.794558048E0
5.245916733E0,1.081670001E-1,-2.908779979E-1,-1.779607058E0
5.250939314E0,1.177640036E-1,-5.200299993E-2,-2.239501953E0
5.255961953E0,-2.987160087E-1,-4.325709939E-1,-4.913910031E-1
5.260984562E0,-2.929129899E-1,-1.000820026E-1,-1.188035011E0
5.266006989E0,-5.486199856E-1,-6.019200087E-1,8.299599886E-1
5.271029477E0,-4.703699946E-1,-2.446479946E-1,1.799629927E-1
5.276052095E0,-1.006775022E0,-5.008969903E-1,1.870123982E0
5.281074688E0,-7.171170115E-1,-3.238790035E-1,1.390468955E0
5.286097173E0,-1.275159955E0,-2.880800068E-1,2.283776999E0
5.291119690E0,-1.043750048E0,-2.437590063E-1,2.162753105E0
5.296142281E0,-1.257809043E0,2.075799927E-2,1.965437055E0
5.301164847E0,-1.143321037E0,-7.599300146E-2,2.236860991E0
5.306187337E0,-1.014927983E0,4.506559968E-1,9.140779972E-1
5.311209849E0,-9.526870251E-1,2.012729943E-1,1.453698993E0
5.316232490E0,-6.470999718E-1,7.177789807E-1,-3.157469928E-1
5.321255087E0,-7.106879950E-1,4.427759945E-1,3.167450130E-1
5.326277667E0,2.007029951E-1,9.531360269E-1,-1.546097040E0
5.331300248E0,-1.683360040E-1,5.764009953E-1,-9.960479736E-1
5.336322868E0,4.545220137E-1,1.215054989E0,-2.447829962E0
5.341345476E0,3.085780144E-1,8.113359809E-1,-2.035839081E0
5.346367974E0,3.203650117E-1,1.176952958E0,-3.222676039E0
5.351390493E0,3.429870009E-1,8.315020204E-1,-2.882699966E0
5.356413083E0,3.394199908E-2,1.054821968E0,-3.660584927E0
5.361435649E0,6.249900162E-2,7.386140227E-1,-3.468432903E0
5.366458139E0,-1.702499986E-1,9.098790288E-1,-3.813311100E0
5.371480651E0,-1.170289963E-1,5.744199753E-1,-3.680286884E0
5.376503302E0,-7.186900079E-2,6.583700180E-1,-3.970844984E0
5.381525899E0,-2.111680061E-1,4.035899937E-1,-3.875524998E0
5.386548460E0,8.071900159E-2,3.195739985E-1,-3.597227097E0
5.391571041E0,-7.101000100E-2,1.357720047E-1,-3.814918995E0
5.396593527E0,1.676370054E-1,5.284199864E-2,-2.991128922E0
5.401616041E0,7.618399709E-2,-7.445800304E-2,-3.241391897E0
5.406638663E0,6.221399829E-2,-2.865889966E-1,-2.298855066E0
5.411661260E0,8.034000173E-3,-2.666130066E-1,-2.580841064E0
5.416683835E0,-2.003660053E-1,-4.081409872E-1,-1.770728946E0
5.421706416E0,-8.683399856E-2,-4.494979978E-1,-1.985510945E0
5.426728878E0,-3.826600015E-1,-4.709739983E-1,-1.296216965E0
5.431751392E0,-2.956170142E-1,-4.641630054E-1,-1.521095037E0
5.436774009E0,-3.337770104E-1,-5.433980227E-1,-8.774560094E-1
5.441796606E0,-3.010439873E-1,-5.653690100E-1,-1.058449030E0
5.446819171E0,-4.203340113E-1,-5.323830247E-1,-5.664870143E-1
5.451841752E0,-2.885310054E-1,-5.279650092E-1,-7.190440297E-1
5.456864233E0,-5.248950124E-1,-4.978289902E-1,-1.859750003E-1
5.461886747E0,-3.804039955E-1,-5.198479891E-1,-4.343839884E-1
5.466909394E0,-5.937889814E-1,-4.469850063E-1,1.802500039E-1
5.471931991E0,-4.515849948E-1,-4.198870063E-1,1.731099933E-2
5.476954566E0,-4.701170027E-1,-4.776319861E-1,6.103299856E-1
5.481977147E0,-4.760079980E-1,-3.822610080E-1,3.742789924E-1
5.486999633E0,-2.881099880E-1,-6.257860065E-1,9.719160199E-1
5.492022147E0,-3.018800020E-1,-4.838840067E-1,7.431129813E-1
5.497044738E0,-8.206400275E-2,-6.729040146E-1,1.348777056E0
5.502067303E0,-1.317500025E-1,-5.741090178E-1,1.153499961E0
5.507089922E0,2.132979929E-1,-7.733269930E-1,1.640746951E0
5.512112529E0,2.839200012E-2,-6.221780181E-1,1.490654945E0
5.517135022E0,5.743309855E-1,-8.133670092E-1,1.712286949E0
5.522157541E0,3.202649951E-1,-7.149419785E-1,1.712156057E0
5.527180127E0,6.304730177E-1,-7.541559935E-1,1.610653996E0
5.532202693E0,5.067070127E-1,-6.552770138E-1,1.651255012E0
5.537225183E0,6.287540197E-1,-6.321190000E-1,1.403269053E0
5.542247695E0,5.295789838E-1,-6.160200238E-1,1.491508007E0
5.547270308E0,4.323750138E-1,-5.141540170E-1,1.380373955E0
5.552292904E0,4.868319929E-1,-4.696109891E-1,1.351055980E0
5.557315479E0,1.981240064E-1,-4.173749983E-1,1.340911031E0
5.562338060E0,3.461369872E-1,-3.981480002E-1,1.358008027E0
5.567360555E0,-5.567900091E-2,-3.466719985E-1,1.667032957E0
5.572383069E0,9.814000130E-2,-3.162010014E-1,1.423251033E0
5.577405696E0,-1.197350025E-1,-1.480340064E-1,2.248256922E0
5.582428293E0,9.548000060E-3,-1.695200056E-1,1.957821965E0
5.587450883E0,-1.167770028E-1,-4.333300143E-2,2.461134911E0
5.592473464E0,1.419499982E-2,-3.072000109E-3,2.420001030E0
5.597495979E0,-8.759099990E-2,1.612229943E-1,2.220187902E0
5.602518493E0,-5.221600085E-2,7.868599892E-2,2.329369068E0
5.607541125E0,1.109860018E-1,3.487859964E-1,1.768090963E0
5.612563722E0,4.419700056E-2,2.138459980E-1,2.043992043E0
5.617586297E0,3.185400069E-1,5.702000260E-1,9.515060186E-1
5.622608878E0,1.971530020E-1,4.288049936E-1,1.418740034E0
5.627631369E0,4.337500036E-1,6.128870249E-1,3.989100084E-2
5.632653883E0,3.026260138E-1,5.176230073E-1,4.642030001E-1
5.637676464E0,4.414559901E-1,5.169680119E-1,-2.639580071E-1
5.642699029E0,3.255020082E-1,4.740200043E-1,-1.984580010E-1
5.647721667E0,7.172530293E-1,1.982180029E-1,-1.116100028E-1
5.652744274E0,4.123190045E-1,3.994710147E-1,-2.086160034E-1
5.657766771E0,7.035580277E-1,-1.893229932E-1,2.617540061E-1
5.662789290E0,6.875830293E-1,9.291499853E-2,9.062999859E-3
5.667811876E0,2.458389997E-1,-3.646099865E-1,1.037436962E0
5.672834442E0,4.595060050E-1,-1.064789966E-1,5.850179791E-1
5.677857076E0,-6.763999816E-3,-6.651849747E-1,1.851102948E0
5.682879683E0,1.794999987E-1,-2.579909861E-1,1.418854952E0
5.687902171E0,-5.209299922E-2,-7.595149875E-1,2.237840891E0
5.692924690E0,1.214789972E-1,-4.756329954E-1,2.075123072E0
5.697947266E0,-1.093600020E-1,-6.032119989E-1,2.247914076E0
5.702969832E0,9.418000281E-2,-4.807640016E-1,2.276099920E0
5.707992317E0,-8.614800125E-2,-3.730880022E-1,1.948457003E0
5.713014829E0,6.833799928E-2,-3.181369901E-1,2.108964920E0
5.718037471E0,-4.944000021E-2,-9.596599638E-2,1.392467976E0
5.723060068E0,5.993999913E-2,-1.433469951E-1,1.754892945E0
5.728082653E0,-7.235900313E-2,2.056590021E-1,3.890829980E-1
5.733105234E0,1.922200061E-2,8.150599897E-2,8.847470284E-1
5.738127734E0,5.156200007E-2,4.645720124E-1,-6.119139791E-1
5.743150248E0,1.484499965E-2,3.081409931E-1,-9.884999692E-2
5.748172839E0,1.865359992E-1,6.206550002E-1,-1.374802947E0
5.753195404E0,9.983599931E-2,4.991120100E-1,-1.036170959E0
5.758218018E0,2.445199937E-1,6.252480149E-1,-1.686838031E0
5.763240625E0,1.845799983E-1,5.973200202E-1,-1.580494046E0
5.768263108E0,3.352850080E-1,5.481290221E-1,-1.656314969E0
5.773285627E0,2.457029969E-1,5.322059989E-1,-1.708510041E0
5.778308213E0,3.248549998E-1,4.497460127E-1,-1.380146980E0
5.783330779E0,3.230080009E-1,5.045449734E-1,-1.555171013E0
5.788353269E0,2.828859985E-1,2.903209925E-1,-8.105440140E-1
5.793375781E0,2.469390035E-1,4.188520014E-1,-1.120489001E0
5.798398413E0,2.967959940E-1,2.021020055E-1,-3.403699994E-1
5.803421010E0,3.164179921E-1,2.663710117E-1,-5.354099870E-1
5.808443585E0,1.848919988E-1,2.352450043E-1,-2.438800037E-1
5.813466166E0,2.583679855E-1,2.618359923E-1,-2.538869977E-1
5.818488638E0,1.475490034E-1,3.530440032E-1,-4.622150064E-1
5.823511152E0,2.235230058E-1,2.288970053E-1,-3.155640066E-1
5.828533784E0,1.290619969E-1,5.095900297E-1,-8.944299817E-1
5.833556381E0,1.388529986E-1,3.786880076E-1,-6.577559710E-1
5.838578956E0,1.332399994E-2,5.823199749E-1,-1.462599993E0
5.843601537E0,1.414120048E-1,3.912859857E-1,-1.190441012E0
5.848624008E0,-7.817299664E-2,6.308879852E-1,-1.897956967E0
5.853646522E0,-6.013099849E-2,4.304319918E-1,-1.690129995E0
5.858669108E0,-9.858900309E-2,6.085519791E-1,-2.371059895E0
5.863691673E0,-5.159400031E-2,4.032019973E-1,-2.121608973E0
5.868714277E0,2.720800042E-2,5.607590079E-1,-2.629684925E0
5.873736884E0,-4.286000133E-2,3.665100038E-1,-2.486984968E0
5.878759343E0,1.768050045E-1,4.754199982E-1,-2.924480915E0
5.883781862E0,1.391689926E-1,2.709330022E-1,-2.754213095E0
5.888804448E0,1.769900024E-1,3.616989851E-1,-3.059763908E0
5.893827014E0,2.080260068E-1,1.798669994E-1,-2.972793102E0
5.898849504E0,-2.375500090E-2,2.099470049E-1,-2.966599941E0
5.903872016E0,1.727869958E-1,4.997999966E-2,-2.969259977E0
5.908894653E0,-1.044289991E-1,7.031100243E-2,-2.827750921E0
5.913917250E0,9.025000036E-3,-6.342399865E-2,-2.851205111E0
5.918939820E0,-1.652400047E-1,-8.957999758E-3,-2.741799116E0
5.923962401E0,2.244199999E-2,-1.743880063E-1,-2.743969917E0
5.928984892E0,-1.849810034E-1,-5.989800021E-2,-2.369091034E0
5.934007406E0,-1.941799931E-2,-1.824540049E-1,-2.554785013E0
5.939030038E0,-1.373530030E-1,-2.197230011E-1,-1.897263050E0
5.944052635E0,-7.537099719E-2,-2.265650034E-1,-2.087620974E0
5.949075213E0,-2.161199972E-2,-2.987900078E-1,-1.537027001E0
5.954097794E0,1.764300093E-2,-3.469470143E-1,-1.668352008E0
5.959120295E0,6.069200113E-2,-1.902969927E-1,-1.331287980E0
5.964142809E0,5.020200089E-2,-2.979739904E-1,-1.383955002E0
5.969165386E0,2.341810018E-1,-2.331459969E-1,-1.171162009E0
5.974187951E0,9.390299767E-2,-2.370249927E-1,-1.226276040E0
5.979210422E0,4.557850063E-1,-3.039759994E-1,-7.202860117E-1
5.984232934E0,3.127099872E-1,-3.152740002E-1,-1.003352046E0
5.989255585E0,4.756459892E-1,-3.883439898E-1,-2.540040016E-1
5.994278182E0,4.102619886E-1,-3.263899982E-1,-4.863629937E-1
5.999300766E0,4.517959952E-1,-3.751229942E-1,2.403829992E-1
6.004323347E0,4.033730030E-1,-3.547529876E-1,-3.411500156E-2
6.009345857E0,2.981660068E-1,-3.793849945E-1,6.276609898E-1
6.014368371E0,3.774349988E-1,-3.256799877E-1,4.532710016E-1
6.019391018E0,4.958600178E-2,-3.054229915E-1,9.413840175E-1
6.024413615E0,1.555770040E-1,-2.727290094E-1,7.636179924E-1
6.029436180E0,3.470000112E-3,-2.186889946E-1,1.137328029E0
6.034458761E0,3.579999902E-4,-1.948529929E-1,1.041540980E0
6.039481262E0,-1.274400018E-2,-2.077260017E-1,1.405575991E0
6.044503776E0,5.766000133E-3,-1.172619984E-1,1.225824952E0
6.049526348E0,1.547200046E-2,-2.956239879E-1,1.803894043E0
6.054548913E0,-1.656500064E-2,-1.338230073E-1,1.566653013E0
6.059571528E0,7.721299678E-2,-3.522900045E-1,2.230424881E0
6.064594134E0,1.942799985E-2,-1.955350041E-1,2.002062082E0
6.069616612E0,-6.302800030E-2,-4.043149948E-1,2.701201916E0
6.074639131E0,-2.519099973E-2,-2.270060033E-1,2.452982903E0
6.079661717E0,-1.728069931E-1,-5.336130261E-1,3.546798944E0
6.084684283E0,-1.169689968E-1,-2.725659907E-1,3.082628012E0
6.089706907E0,-3.033230007E-1,-6.364169717E-1,4.225540161E0
6.094729514E0,-2.700270116E-1,-4.526959956E-1,3.864500999E0
6.099751987E0,-3.021869957E-1,-4.929209948E-1,4.315310001E0
6.104774506E0,-2.706150115E-1,-4.413369894E-1,4.380256176E0
6.109797092E0,-4.462670088E-1,-9.925699979E-2,3.516628981E0
6.114819658E0,-2.819370031E-1,-2.746619880E-1,3.998212099E0
6.119842148E0,-6.238059998E-1,4.105289876E-1,2.394921064E0
6.124864660E0,-4.471589923E-1,1.538490057E-1,2.986756086E0
6.129887282E0,-5.865319967E-1,8.587970138E-1,1.165405035E0
6.134909879E0,-5.343909860E-1,5.458350182E-1,1.817863941E0
6.139932454E0,-4.406949878E-1,1.058040977E0,2.582510114E-1
6.144955035E0,-3.888219893E-1,8.895720243E-1,6.352829933E-1
6.149977517E0,9.438200295E-2,7.854099870E-1,2.174320072E-1
6.155000031E0,-1.906110048E-1,8.725159764E-1,1.389340013E-1
6.160022653E0,7.195039988E-1,1.413840055E-1,9.627439976E-1
6.165045250E0,3.404389918E-1,5.886080265E-1,4.922519922E-1
6.170067660E0,6.720510125E-1,-7.260379791E-1,2.230034113E0
6.175090146E0,6.267430186E-1,-6.538899988E-2,1.514405966E0
6.180112772E0,-4.100099951E-2,-1.295475960E0,3.723193884E0
6.185135364E0,1.934220046E-1,-6.654559970E-1,2.880079031E0
6.190157907E0,-6.729630232E-1,-1.642873049E0,4.914309978E0
6.195180487E0,-3.981679976E-1,-1.113221049E0,4.369947910E0
6.200203098E0,-1.071895957E0,-1.673398972E0,5.424646854E0
6.205225706E0,-9.262449741E-1,-1.356469035E0,5.210310936E0
6.210248159E0,-1.131705046E0,-1.452435970E0,4.997365952E0
6.215270647E0,-1.088168979E0,-1.353855014E0,5.364377975E0
6.220293287E0,-9.428880215E-1,-1.122444034E0,3.807491064E0
6.225315880E0,-1.037065029E0,-1.147346973E0,4.418191910E0
6.230338370E0,-7.057859898E-1,-7.398740053E-1,2.529289007E0
6.235360887E0,-8.096669912E-1,-8.589869738E-1,3.110488892E0
6.240383478E0,-4.790070057E-1,-3.659900129E-1,1.172507048E0
6.245406044E0,-6.413519979E-1,-5.561289787E-1,1.871930957E0
6.250428539E0,-1.352639943E-1,6.847699732E-2,-4.358940125E-1
6.255451051E0,-3.847270012E-1,-2.133840024E-1,4.009889960E-1
6.260473668E0,2.678160071E-1,4.558990002E-1,-2.015115023E0
6.265496265E0,-1.094269976E-1,1.513870060E-1,-1.252351046E0
6.270518840E0,8.257240057E-1,5.457419753E-1,-3.078397989E0
6.275541421E0,2.377009988E-1,3.761290014E-1,-2.680258036E0
6.280563931E0,1.222795963E0,3.729569912E-1,-2.976381063E0
6.285586445E0,7.663360238E-1,3.566330075E-1,-3.153722048E0
6.290609076E0,8.445749879E-1,1.903100014E-1,-2.138829947E0
6.295631673E0,7.487180233E-1,3.012500107E-1,-2.620631933E0
6.300654248E0,2.310830057E-1,-1.063660011E-1,-1.113425970E0
6.305676829E0,4.152509868E-1,1.051359996E-1,-1.587677956E0
6.310699310E0,-3.479219973E-1,-2.221000046E-1,-2.351939976E-1
6.315721824E0,-1.145979986E-1,-5.430800095E-2,-6.633740067E-1
6.320744411E0,-6.709769964E-1,-1.476089954E-1,2.274580002E-1
6.325766976E0,-4.303759933E-1,-8.500699699E-2,4.278700054E-2
6.330789600E0,-7.373170257E-1,2.279200032E-2,1.640930027E-1
6.335812207E0,-5.896819830E-1,-1.118300017E-2,2.154539973E-1
6.340834705E0,-5.161110163E-1,2.701579928E-1,-2.706750035E-1
6.345857224E0,-5.448669791E-1,8.881700039E-2,-3.873999929E-3
6.350879834E0,-1.095649973E-1,4.207819998E-1,-1.015205979E0
6.355902400E0,-2.499040067E-1,2.352070063E-1,-5.971760154E-1
6.360924904E0,1.947939992E-1,5.615530014E-1,-1.960391998E0
6.365947416E0,1.772199944E-2,3.079040051E-1,-1.471392989E0
6.370970048E0,2.424200028E-1,5.877230167E-1,-2.768754005E0
6.375992645E0,1.464519948E-1,3.202309906E-1,-2.422900915E0
6.381015219E0,1.772380024E-1,6.483600140E-1,-3.343982935E0
6.386037800E0,1.196110025E-1,3.322170079E-1,-3.011993885E0
6.391060287E0,5.300699919E-2,5.328069925E-1,-3.502779007E0
6.396082801E0,-1.659700088E-2,2.779609859E-1,-3.459656000E0
6.401105392E0,8.654999733E-2,2.994990051E-1,-3.477613926E0
6.406127957E0,-7.555700094E-2,1.279200017E-1,-3.467391014E0
6.411150456E0,2.944340110E-1,-1.437400002E-2,-2.896728039E0
6.416172968E0,1.545900013E-2,-8.049999923E-2,-3.208408117E0
6.421195596E0,1.303890049E-1,-2.282319963E-1,-2.196693897E0
6.426218193E0,1.825529933E-1,-2.662970126E-1,-2.516676903E0
6.431240763E0,-2.657360137E-1,-3.418799937E-1,-1.462527990E0
6.436263344E0,-1.066809967E-1,-3.350639939E-1,-1.794999957E0
6.441285820E0,-5.431200266E-1,-4.704990089E-1,-7.927060127E-1
6.446308334E0,-3.832809925E-1,-4.749859869E-1,-1.109429002E0
6.451330966E0,-7.203940153E-1,-5.293670297E-1,-4.462989867E-1
6.456353563E0,-5.261260271E-1,-5.188469887E-1,-5.938209891E-1
6.461376138E0,-6.701369882E-1,-6.615129709E-1,-1.327790022E-1
6.466398719E0,-5.672389865E-1,-5.709670186E-1,-3.058120012E-1
6.471421234E0,-7.283070087E-1,-5.492529869E-1,1.045890003E-1
6.476443748E0,-5.539209843E-1,-6.193860173E-1,-1.800000027E-4
6.481466320E0,-6.719359756E-1,-4.137859941E-1,-2.199999988E-2
6.486488885E0,-5.769910216E-1,-5.105360150E-1,9.264799953E-2
6.491511514E0,-4.488919973E-1,-2.301490009E-1,-5.183740258E-1
6.496534120E0,-4.588510096E-1,-4.112359881E-1,-2.465610057E-1
6.501556598E0,-3.025920093E-1,-1.813939959E-1,-7.665849924E-1
6.506579117E0,-3.469890058E-1,-3.041220009E-1,-6.687729955E-1
6.511601718E0,2.510599978E-2,-2.458759993E-1,-9.430390000E-1
6.516624284E0,-1.653559953E-1,-3.113740087E-1,-8.237339854E-1
6.521646908E0,3.429059982E-1,-2.889420092E-1,-1.100857019E0
6.526669515E0,1.305830032E-1,-3.288959861E-1,-1.011626005E0
6.531691943E0,6.282610297E-1,-5.462790132E-1,-7.087150216E-1
6.536714430E0,3.397189975E-1,-4.094749987E-1,-9.463239908E-1
6.541737071E0,6.025940180E-1,-7.955470085E-1,-1.212699991E-2
6.546759664E0,5.025240183E-1,-5.995910168E-1,-3.605270088E-1
6.551782149E0,5.190299749E-1,-1.062824965E0,6.666719913E-1
6.556804666E0,5.071780086E-1,-7.501329780E-1,2.548179924E-1
6.561827252E0,3.070079982E-1,-1.284433007E0,1.625821948E0
6.566849818E0,3.771379888E-1,-9.642360210E-1,1.102939963E0
6.571872322E0,1.037020013E-1,-1.461714983E0,2.471677065E0
6.576894834E0,2.469229996E-1,-1.083950996E0,2.025657892E0
6.581917461E0,-2.201229930E-1,-1.457314014E0,3.232811928E0
6.586940058E0,9.957499802E-2,-1.243852973E0,2.816220045E0
6.591962608E0,-6.333169937E-1,-1.285223961E0,3.778631926E0
6.596985189E0,-3.158409894E-1,-1.131343961E0,3.471301079E0
6.602007675E0,-8.189569712E-1,-1.005349040E0,4.074785233E0
6.607030189E0,-5.485150218E-1,-9.738900065E-1,3.931189060E0
6.612052835E0,-7.180079818E-1,-5.337430239E-1,3.968529940E0
6.617075432E0,-6.769570112E-1,-6.784309745E-1,4.068140984E0
6.622098007E0,-4.328680038E-1,-1.891729981E-1,3.321518898E0
6.627120588E0,-4.545710087E-1,-3.438189924E-1,3.702688932E0
6.632143074E0,-6.827799976E-2,4.266000167E-2,2.400796890E0
6.637165588E0,-2.414889932E-1,-1.314129978E-1,2.896013021E0
6.642188175E0,1.744090021E-1,3.658120036E-1,1.142110944E0
6.647210740E0,3.596600145E-2,1.037269980E-1,1.754521012E0
6.652233340E0,5.810739994E-1,5.402259827E-1,1.823100075E-2
6.657255947E0,2.349810004E-1,2.639900148E-1,5.924140215E-1
6.662278430E0,8.040339947E-1,5.980489850E-1,-9.060429931E-1
6.667300949E0,4.965879917E-1,4.477590024E-1,-4.901210070E-1
6.672323530E0,6.841589808E-1,2.238530070E-1,-1.263411045E0
6.677346096E0,5.668669939E-1,3.253880143E-1,-1.137210011E0
6.682368605E0,3.716279864E-1,-1.608970016E-1,-1.184519053E0
6.687391117E0,3.797009885E-1,-7.573999930E-3,-1.209316015E0
6.692413675E0,-9.599299729E-2,-4.898569882E-1,-7.584969997E-1
6.697436240E0,1.232450008E-1,-2.276110053E-1,-1.113119960E0
6.702458859E0,-4.845629930E-1,-8.415759802E-1,3.336890042E-1
6.707481466E0,-2.027069926E-1,-4.349890053E-1,-2.961960137E-1
6.712503935E0,-8.047180176E-1,-9.997119904E-1,1.217206955E0
6.717526454E0,-4.154610038E-1,-6.425179839E-1,7.800679803E-1
6.722549044E0,-1.069401979E0,-9.300240278E-1,1.560304999E0
6.727571610E0,-6.870790124E-1,-6.625149846E-1,1.446161985E0
6.732594234E0,-9.950259924E-1,-6.528030038E-1,1.429769993E0
6.737616841E0,-7.999209762E-1,-5.640959740E-1,1.518013000E0
6.742639333E0,-5.149459839E-1,-3.444620073E-1,1.044793010E0
6.747661852E0,-5.466079712E-1,-3.162550032E-1,1.239299059E0
6.752684438E0,1.655800082E-2,1.452699956E-2,5.203149915E-1
6.757707004E0,-1.556870043E-1,-6.483300030E-2,7.962369919E-1
6.762729518E0,3.453690112E-1,3.649919927E-1,-1.678390056E-1
6.767752030E0,2.005070001E-1,1.934539974E-1,1.878519952E-1
6.772774678E0,5.950760245E-1,5.603520274E-1,-9.767450094E-1
6.777797275E0,3.910070062E-1,4.373239875E-1,-5.767310262E-1
6.782819704E0,6.537150145E-1,7.535989881E-1,-1.516726017E0
6.787842190E0,5.499939919E-1,5.927760005E-1,-1.281172991E0
6.792864841E0,3.848110139E-1,8.626629710E-1,-1.830402017E0
6.797887433E0,4.156430066E-1,7.108179927E-1,-1.674425960E0
6.802910019E0,1.662060022E-1,9.152839780E-1,-2.124322891E0
6.807932599E0,2.145179957E-1,7.876960039E-1,-2.029468060E0
6.812955220E0,4.952299967E-2,7.578650117E-1,-2.009185076E0
6.817977828E0,1.514009982E-1,7.872989774E-1,-2.120399952E0
6.823000306E0,-1.604070067E-1,7.275170088E-1,-1.604125023E0
6.828022825E0,3.135300055E-2,7.055860162E-1,-1.789134026E0
6.833045410E0,-2.285950035E-1,5.785030127E-1,-1.265419960E0
6.838067976E0,-7.870200276E-2,5.957360268E-1,-1.416566014E0
6.843090480E0,-2.943280041E-1,6.634230018E-1,-1.272860050E0
6.848112992E0,-1.305059940E-1,5.874149799E-1,-1.225545049E0
6.853135575E0,-1.306450069E-1,7.046729922E-1,-1.508919001E0
6.858158140E0,-1.332120001E-1,5.919730067E-1,-1.321287036E0
6.863180773E0,2.989979982E-1,7.638220191E-1,-1.911705971E0
6.868203380E0,1.336099952E-1,5.984209776E-1,-1.654500008E0
6.873225858E0,7.330719829E-1,8.213610053E-1,-2.308959007E0
6.878248377E0,4.811649919E-1,6.005039811E-1,-2.111018896E0
6.883270977E0,6.961420178E-1,8.397349715E-1,-2.891391993E0
6.888293543E0,6.885060072E-1,5.783659816E-1,-2.533948898E0
6.893316028E0,2.860479951E-1,8.850979805E-1,-3.552462101E0
6.898338540E0,4.644249976E-1,5.456410050E-1,-3.239732981E0
6.903361172E0,-8.100699633E-2,7.783759832E-1,-3.836906910E0
6.908383769E0,6.840699911E-2,4.884670079E-1,-3.656977892E0
6.913406344E0,-4.020300135E-2,5.191609859E-1,-3.675359964E0
6.918428925E0,1.122200023E-2,3.102450073E-1,-3.707524061E0
6.923451420E0,5.921300128E-2,2.687169909E-1,-3.358104944E0
6.928473934E0,4.478900135E-2,1.347659975E-1,-3.475596905E0
6.933496553E0,3.030729890E-1,-4.914699867E-2,-2.833755016E0
6.938519150E0,2.286210060E-1,-1.118839979E-1,-3.052583933E0
6.943541718E0,2.489989996E-1,-1.776880026E-1,-2.265904903E0
6.948564299E0,3.135359883E-1,-2.556349933E-1,-2.494910955E0
6.953586795E0,1.238999981E-2,-3.073549867E-1,-1.792816997E0
6.958609309E0,1.086930037E-1,-2.699199915E-1,-1.985582948E0
6.963631891E0,9.199699759E-2,-4.812349975E-1,-1.244959950E0
6.968654456E0,3.671900183E-2,-4.043560028E-1,-1.529744029E0
6.973676946E0,2.606340051E-1,-5.957329869E-1,-5.480539799E-1
6.978699458E0,1.454640031E-1,-5.100889802E-1,-8.918870091E-1
6.983722080E0,1.603610069E-1,-6.465209723E-1,-4.729200155E-2
6.988744677E0,1.955330074E-1,-5.398910046E-1,-3.287689984E-1
6.993767267E0,-3.800500184E-2,-6.526280046E-1,5.101879835E-1
6.998789848E0,7.115799934E-2,-5.517100096E-1,1.998970062E-1
7.003812334E0,-2.432550043E-1,-6.466209888E-1,8.733109832E-1
7.008834848E0,-1.182219982E-1,-5.479549766E-1,7.068229914E-1
7.013857430E0,-4.855819941E-1,-4.609920084E-1,1.039713979E0
7.018879995E0,-3.035309911E-1,-4.778099954E-1,9.573050141E-1
7.023902633E0,-6.353710294E-1,-2.135280073E-1,9.570720196E-1
7.028925240E0,-4.607990086E-1,-3.023099899E-1,1.017681003E0
7.033947728E0,-5.220040083E-1,-1.735300012E-2,7.008299828E-1
7.038970247E0,-4.236409962E-1,-1.140120029E-1,8.468359709E-1
7.043992843E0,-4.089779854E-1,1.801880002E-1,5.637630224E-1
7.049015409E0,-3.278430104E-1,5.128400028E-2,6.442030072E-1
7.054037894E0,-2.966800034E-1,2.787620127E-1,3.925429881E-1
7.059060406E0,-2.432480007E-1,1.981710047E-1,4.854159951E-1
7.064082982E0,-2.184929997E-1,2.604500055E-1,6.553949714E-1
7.069105547E0,-1.691019982E-1,2.438489944E-1,4.568719864E-1
7.074128176E0,-5.551199988E-2,5.775399879E-2,1.281502962E0
7.079150783E0,-1.411509961E-1,1.956229955E-1,9.403839707E-1
7.084173271E0,-1.181799993E-1,-2.193820029E-1,2.238070011E0
7.089195790E0,-6.483799964E-2,-8.837999776E-3,1.748850942E0
7.094218376E0,-2.279829979E-1,-4.832090139E-1,2.871269941E0
7.099240942E0,-1.927250028E-1,-2.125149965E-1,2.549269915E0
7.104263432E0,-3.115650117E-1,-5.931429863E-1,3.095170021E0
7.109285944E0,-2.998340130E-1,-3.982819915E-1,2.999031067E0
7.114308576E0,-4.064219892E-1,-5.816829801E-1,3.127754927E0
7.119331173E0,-4.088560045E-1,-4.494189918E-1,3.110337019E0
7.124353748E0,-3.396190107E-1,-4.640829861E-1,2.946089983E0
7.129376329E0,-4.040350020E-1,-3.655599952E-1,3.049468994E0
7.134398791E0,-3.536210060E-1,-2.273979932E-1,2.430676937E0
7.139421305E0,-2.805930078E-1,-2.864400148E-1,2.685051918E0
7.144443892E0,-4.585259855E-1,1.808310002E-1,2.071502924E0
7.149466457E0,-3.103649914E-1,2.110000001E-3,2.235316992E0
7.154489081E0,-4.611279964E-1,4.074940085E-1,1.454017997E0
7.159511687E0,-4.101000130E-1,3.281660080E-1,1.769747972E0
7.164534174E0,-2.305389941E-1,4.719600081E-1,1.367519975E0
7.169556694E0,-3.280630112E-1,4.764020145E-1,1.327692986E0
7.174579279E0,2.813250124E-1,2.234590054E-1,1.591966987E0
7.179601845E0,-1.739300042E-2,5.026770234E-1,1.339643002E0
7.184624350E0,4.623099864E-1,-3.971819878E-1,2.864321947E0
7.189646862E0,2.695389986E-1,1.693489999E-1,2.118314028E0
7.194669494E0,1.925670058E-1,-1.163601041E0,4.478135109E0
7.199692091E0,1.486759931E-1,-4.685280025E-1,3.548873901E0
7.204714666E0,-1.484829932E-1,-1.864277959E0,6.270921230E0
7.209737247E0,-2.407149971E-1,-1.078976989E0,5.379099846E0
7.214759723E0,-4.669210017E-1,-2.259589911E0,7.205557823E0
7.219782237E0,-4.184930027E-1,-1.843312025E0,6.868605137E0
7.224804824E0,-7.679539919E-1,-1.965849042E0,6.571041107E0
7.229827389E0,-8.389790058E-1,-1.813488007E0,7.024602890E0
7.234849850E0,-6.802330017E-1,-1.669958949E0,5.126904011E0
7.239872362E0,-7.915400267E-1,-1.680757046E0,5.909645081E0
7.244894949E0,-5.097730160E-1,-1.091166973E0,3.554239035E0
7.249917514E0,-6.298080087E-1,-1.310896993E0,4.344605923E0
7.254940124E0,-1.533939987E-1,-4.884999990E-1,1.742609024E0
7.259962731E0,-3.882080019E-1,-7.861239910E-1,2.708972931E0
7.264985219E0,1.781910062E-1,2.706700005E-2,-7.330200076E-2
7.270007738E0,-5.266600102E-2,-2.392929941E-1,7.748280168E-1
7.275030328E0,6.767309904E-1,1.932989955E-1,-1.095762014E0
7.280052894E0,2.440299988E-1,9.359099716E-2,-7.239030004E-1
7.285075399E0,1.232607961E0,2.718819976E-1,-1.294152975E0
7.290097911E0,8.246390224E-1,1.798509955E-1,-1.308073997E0
7.295120523E0,7.060599923E-1,3.445999920E-1,-9.015409946E-1
7.300143119E0,8.542339802E-1,3.371619880E-1,-1.057016969E0
7.305165694E0,-1.481360048E-1,1.659640074E-1,-7.223029733E-1
7.310188275E0,1.250530034E-1,3.135850132E-1,-8.050019741E-1
7.315210767E0,-6.989330053E-1,1.296070069E-1,-3.383150101E-1
7.320233281E0,-4.146409929E-1,1.891669929E-1,-5.478019714E-1
7.325255868E0,-8.625739813E-1,9.332299978E-2,1.008690000E-1
7.330278433E0,-7.508209944E-1,1.666450053E-1,-1.306799948E-1
7.335301062E0,-6.168010235E-1,3.589500114E-2,4.999400079E-1
7.340323669E0,-6.642159820E-1,8.519999683E-2,3.530209959E-1
7.345346162E0,-2.509529889E-1,1.095290035E-1,4.307579994E-1
7.350368681E0,-3.804689944E-1,6.829900295E-2,5.184860229E-1
7.355391267E0,-1.016999944E-3,2.508159876E-1,-3.208110034E-1
7.360413833E0,-6.531000137E-2,1.136099994E-1,1.375830024E-1
7.365436437E0,2.378360033E-1,4.675610065E-1,-1.276190996E0
7.370459044E0,1.230320036E-1,1.919939965E-1,-7.909700274E-1
7.375481497E0,2.360100001E-1,6.930299997E-1,-2.266001940E0
7.380503984E0,2.129870057E-1,3.543289900E-1,-1.776100039E0
7.385526624E0,2.531999946E-1,6.847599745E-1,-3.095325947E0
7.390549217E0,2.061289996E-1,3.976899981E-1,-2.727788925E0
7.395571712E0,-5.170999840E-2,6.221380234E-1,-3.564013958E0
7.400594229E0,8.062700182E-2,3.746089935E-1,-3.390491962E0
7.405616815E0,-2.555600107E-1,3.759680092E-1,-3.663917065E0
7.410639380E0,-1.913080066E-1,1.842290014E-1,-3.578588009E0
7.415661865E0,-1.725549996E-1,1.415030062E-1,-3.744585991E0
7.420684377E0,-2.605830133E-1,5.189000163E-3,-3.714482069E0
7.425707009E0,2.909499966E-2,-9.532999992E-2,-3.445451021E0
7.430729606E0,-1.015060022E-1,-2.204529941E-1,-3.614414930E0
7.435752181E0,2.436899953E-2,-2.977319956E-1,-3.130121946E0
7.440774762E0,-3.213100135E-2,-3.318449855E-1,-3.245647907E0
7.445797248E0,-4.613599926E-2,-4.338420033E-1,-2.948178053E0
7.450819762E0,-8.795599639E-2,-5.217300057E-1,-3.023761034E0
7.455842349E0,-7.424200326E-2,-4.172379971E-1,-2.843456030E0
7.460864914E0,-9.578199685E-2,-5.961880088E-1,-2.842125893E0
7.465887543E0,-1.472679973E-1,-4.136160016E-1,-2.834167004E0
7.470910150E0,-1.460790038E-1,-5.377439857E-1,-2.797146082E0
7.475932588E0,-3.530569971E-1,-4.049420059E-1,-2.862750053E0
7.480955075E0,-2.676379979E-1,-5.874170065E-1,-2.834053993E0
7.485977696E0,-5.022720098E-1,-3.959900141E-1,-2.689388990E0
7.491000289E0,-4.361160100E-1,-5.559290051E-1,-2.788512945E0
7.496022784E0,-4.615199864E-1,-4.893819988E-1,-2.265532970E0
7.501045301E0,-3.949419856E-1,-5.550680161E-1,-2.450895071E0
7.506067900E0,-4.404090047E-1,-4.732789993E-1,-1.791234016E0
7.511090466E0,-4.653559923E-1,-5.735650063E-1,-1.982228041E0
7.516112956E0,-3.027409911E-1,-5.160380006E-1,-1.274713993E0
7.521135468E0,-3.642059863E-1,-5.396829844E-1,-1.518349051E0
7.526158059E0,-9.726800025E-2,-5.863630176E-1,-6.674759984E-1
7.531180624E0,-2.432080060E-1,-5.451139808E-1,-9.811469913E-1
7.536203258E0,2.191520035E-1,-7.546610236E-1,1.450099982E-2
7.541225865E0,-6.432999671E-2,-6.198340058E-1,-3.172099888E-1
7.546248338E0,4.891360104E-1,-8.303319812E-1,5.997830033E-1
7.551270857E0,2.356179953E-1,-7.055339813E-1,2.616100013E-1
7.556293443E0,7.305300236E-1,-9.273430109E-1,1.102512956E0
7.561316009E0,4.660049975E-1,-7.710880041E-1,8.933069706E-1
7.566338624E0,8.172529936E-1,-9.096279740E-1,1.218734026E0
7.571361231E0,6.578500271E-1,-8.351060152E-1,1.165233970E0
7.576383695E0,5.394189954E-1,-7.150800228E-1,9.638460279E-1
7.581406214E0,6.031929851E-1,-7.348279953E-1,1.132598042E0
7.586428795E0,1.917169988E-1,-5.569069982E-1,7.970309854E-1
7.591451361E0,3.106980026E-1,-5.639410019E-1,8.532230258E-1
7.596473856E0,1.180519983E-1,-5.223559737E-1,8.939599991E-1
7.601496368E0,1.332799941E-1,-4.405409992E-1,7.880300283E-1
7.606518960E0,1.875600033E-2,-5.359339714E-1,1.321634054E0
7.611541525E0,1.222129986E-1,-4.222419858E-1,1.057047009E0
7.616564163E0,-1.648879945E-1,-5.038030148E-1,1.853554010E0
7.621586770E0,-1.423799992E-2,-4.441849887E-1,1.607285976E0
7.626609239E0,-3.955810070E-1,-3.611350060E-1,2.053611994E0
7.631631758E0,-2.168779969E-1,-2.734160125E-1,1.966330051E0
7.636654343E0,-3.306370080E-1,-3.157069981E-1,1.940085053E0
7.641676909E0,-2.804619968E-1,-2.300380021E-1,1.999878049E0
7.646699389E0,-2.011000067E-1,-2.205999941E-1,1.925493002E0
7.651721901E0,-2.081169933E-1,-1.732710004E-1,1.927026987E0
7.656744474E0,-9.350399673E-2,-1.269290000E-1,1.558925033E0
7.661767039E0,-1.115079969E-1,-8.900199831E-2,1.803882003E0
7.666789529E0,2.113799937E-2,5.288600177E-2,7.730559707E-1
7.671812041E0,-8.849999867E-3,7.892999798E-3,1.218868971E0
7.676834599E0,2.309760004E-1,7.274000347E-2,5.614500120E-2
7.681857164E0,8.058799803E-2,9.027799964E-2,3.958620131E-1
7.686879788E0,4.268870056E-1,2.645800076E-2,-4.619649947E-1
7.691902395E0,2.749100029E-1,1.253460050E-1,-2.572070062E-1
7.696924868E0,3.120430112E-1,-1.561210006E-1,-3.873449862E-1
7.701947387E0,3.501000106E-1,1.030810028E-1,-4.881989956E-1
7.706969978E0,7.154300064E-2,-4.238950014E-1,4.064970016E-1
7.711992544E0,1.555819958E-1,-8.978399634E-2,-1.090779975E-1
7.717015168E0,-4.711600021E-2,-6.498860121E-1,1.864989996E0
7.722037775E0,1.989899948E-2,-1.976619959E-1,1.060418010E0
7.727060248E0,-6.603799760E-2,-9.460390210E-1,3.390770912E0
7.732082767E0,3.081700020E-2,-4.745520055E-1,2.599870920E0
7.737105353E0,-1.352919936E-1,-1.020658970E0,4.586850166E0
7.742127919E0,-9.651999921E-3,-6.325399876E-1,4.049149990E0
7.747150438E0,-1.912769973E-1,-8.344140053E-1,5.040159225E0
7.752172950E0,-4.442600161E-2,-6.689630151E-1,4.950201035E0
7.757195555E0,-2.104579955E-1,-4.665510058E-1,4.361396790E0
7.762218120E0,-1.156390011E-1,-5.121679902E-1,4.809030056E0
7.767240744E0,-2.333009988E-1,6.207999960E-2,2.929874897E0
7.772263351E0,-1.608369946E-1,-1.288100034E-1,3.718585968E0
7.777285839E0,3.594520092E-1,3.279219866E-1,1.237174034E0
7.782308358E0,-2.806499973E-2,1.949770004E-1,2.059851885E0
7.787330929E0,1.243945956E0,5.522779822E-1,-1.062840000E-1
7.792353495E0,7.806259990E-1,3.018270135E-1,5.178970098E-1
7.797375985E0,1.623417020E0,9.292280078E-1,-9.794149995E-1
7.802398497E0,1.247907996E0,6.340019703E-1,-5.614259839E-1
7.807421084E0,1.402657032E0,1.027374029E0,-1.940446019E0
7.812443649E0,1.288239002E0,8.538510203E-1,-1.412624955E0
7.817466288E0,6.052290201E-1,1.104208946E0,-2.654795885E0
7.822488895E0,7.715049982E-1,8.841850162E-1,-2.339950085E0
7.827511368E0,-2.133059949E-1,9.820039868E-1,-2.721077919E0
7.832533887E0,4.654299840E-2,8.843389750E-1,-2.758064032E0
7.837556488E0,-6.484649777E-1,5.826320052E-1,-2.130805016E0
7.842579054E0,-4.084759951E-1,7.174429893E-1,-2.516606092E0
7.847601673E0,-9.373840094E-1,3.481360078E-1,-1.323614001E0
7.852624280E0,-6.436989903E-1,4.720079899E-1,-1.722092986E0
7.857646728E0,-1.042570949E0,2.247080058E-1,-7.635059953E-1
7.862669215E0,-7.415109873E-1,3.438790143E-1,-1.023627996E0
7.867691851E0,-1.135885954E0,1.728319973E-1,-5.537199974E-1
7.872714443E0,-7.957710028E-1,2.647120059E-1,-6.503300071E-1
7.877736918E0,-1.185201049E0,2.500460148E-1,-6.465610266E-1
7.882759435E0,-8.308370113E-1,2.342389971E-1,-5.701460242E-1
7.887782026E0,-8.943060040E-1,3.645150065E-1,-9.256309867E-1
7.892804592E0,-7.959520221E-1,3.242320120E-1,-8.237450123E-1
7.897827082E0,-5.295370221E-1,5.193679929E-1,-1.459532022E0
7.902849594E0,-4.731549919E-1,3.232679963E-1,-1.137825966E0
7.907872195E0,-1.502729952E-1,6.323760152E-1,-2.457973003E0
7.912894760E0,-2.096090019E-1,4.072589874E-1,-1.893751979E0
7.917917389E0,-1.661259979E-1,8.289240003E-1,-3.297610998E0
7.922939996E0,3.417000175E-2,4.702180028E-1,-2.920867920E0
7.927962464E0,-3.787919879E-1,8.227900267E-1,-3.765333891E0
7.932984983E0,-1.347510070E-1,5.496240258E-1,-3.544888020E0
7.938007565E0,-3.390919864E-1,5.622860193E-1,-3.771922112E0
7.943030131E0,-1.781039983E-1,3.811179996E-1,-3.772095919E0
7.948052621E0,-1.215580031E-1,3.052099943E-1,-3.399243116E0
7.953075133E0,-5.586000159E-2,1.765860021E-1,-3.578169107E0
7.958097710E0,7.023800164E-2,6.429900229E-2,-2.834317923E0
7.963120275E0,1.017590016E-1,3.719000146E-2,-3.090812922E0
7.968142918E0,1.422329992E-1,-2.443400025E-2,-2.497061968E0
7.973165525E0,2.227319926E-1,-1.274109930E-1,-2.596918106E0
7.978188008E0,1.165539995E-1,-5.440000072E-2,-2.352952003E0
7.983210527E0,2.361139953E-1,-1.950139999E-1,-2.362481117E0
7.988233117E0,1.695999992E-3,-5.287799984E-2,-2.262775898E0
7.993255683E0,1.748600006E-1,-1.718209982E-1,-2.249696970E0
7.998278182E0,3.287399933E-2,-1.028280035E-1,-2.051532984E0
8.003300695E0,6.608500332E-2,-1.789389998E-1,-2.132936001E0
8.008323290E0,2.493290007E-1,-1.448069960E-1,-1.886723995E0
8.013345855E0,1.766439974E-1,-2.474150062E-1,-1.931272030E0
8.018368479E0,5.486680269E-1,-1.216389984E-1,-1.643568993E0
8.023391086E0,4.210050106E-1,-2.420430034E-1,-1.777881980E0
8.028413560E0,6.781399846E-1,-1.348499954E-1,-1.294844031E0
8.033436079E0,5.467219949E-1,-2.443300039E-1,-1.466948986E0
8.038458680E0,5.944499969E-1,-1.704609990E-1,-9.041799903E-1
8.043481246E0,5.623599887E-1,-2.251249999E-1,-1.109601974E0
8.048503741E0,4.042530060E-1,-2.575030029E-1,-4.962500036E-1
8.053526253E0,3.749450147E-1,-2.442069948E-1,-7.447239757E-1
8.058548835E0,4.077689946E-1,-3.799349964E-1,1.887940019E-1
8.063571400E0,3.119539917E-1,-3.040759861E-1,-1.597619951E-1
8.068594019E0,5.114439726E-1,-4.638470113E-1,6.816250086E-1
8.073616626E0,3.818829954E-1,-3.184140027E-1,4.067150056E-1
8.078639104E0,4.080899954E-1,-6.511629820E-1,1.531348944E0
8.083661623E0,4.061790109E-1,-4.160049856E-1,1.021265984E0
8.088684209E0,2.717800140E-1,-7.362059951E-1,2.309603930E0
8.093706775E0,3.260250092E-1,-5.474709868E-1,1.897351980E0
8.098729255E0,-1.387699991E-1,-6.703580022E-1,2.850649118E0
8.103751767E0,9.157399833E-2,-5.167260170E-1,2.544585943E0
8.108774364E0,-5.066499710E-1,-5.441799760E-1,3.311578989E0
8.113796929E0,-2.807680070E-1,-4.632300138E-1,3.059119940E0
8.118819419E0,-6.144289970E-1,-3.834379911E-1,3.545289040E0
8.123841931E0,-5.571690202E-1,-3.201900125E-1,3.380836010E0
8.128864553E0,-2.494779974E-1,-1.909289956E-1,3.742149115E0
8.133887149E0,-4.154100120E-1,-2.115519941E-1,3.669123888E0
8.138909705E0,8.431799710E-2,5.558099970E-2,3.724641085E0
8.143932286E0,-1.543200016E-1,1.145900041E-2,3.717930079E0
8.148954767E0,4.949769974E-1,1.237870008E-1,3.499880075E0
8.153977281E0,2.406149954E-1,1.273960024E-1,3.624316931E0
8.158999849E0,5.511429906E-1,2.330580056E-1,3.264606953E0
8.164022414E0,5.145040154E-1,1.887259930E-1,3.352590084E0
8.169044914E0,9.550700337E-2,3.779970109E-1,3.083260059E0
8.174067426E0,2.962529957E-1,3.130150139E-1,3.150975943E0
8.179090058E0,-1.864860058E-1,1.936299950E-1,2.942435026E0
8.184112655E0,-1.246130019E-1,3.605639935E-1,2.997509956E0
8.189135225E0,-8.943500370E-2,-5.604099855E-2,3.358355045E0
8.194157806E0,-2.512579858E-1,2.073320001E-1,3.065100908E0
8.199180292E0,2.479210049E-1,-5.844889879E-1,4.104457855E0
8.204202806E0,-5.798700079E-2,-6.255999953E-2,3.692133904E0
8.209225402E0,1.865939945E-1,-1.434471965E0,5.466725826E0
8.214247967E0,1.102809981E-1,-6.673730016E-1,4.602413177E0
8.219270472E0,-4.001890123E-1,-2.091017008E0,7.357526779E0
8.224292984E0,-2.405849993E-1,-1.362655044E0,6.343687057E0
8.229315611E0,-7.497649789E-1,-2.633034945E0,8.821518898E0
8.234338208E0,-6.994709969E-1,-1.979035020E0,8.259928703E0
8.239360777E0,-1.012982965E0,-2.585777998E0,8.362117767E0
8.244383358E0,-9.622110128E-1,-2.343199015E0,8.728690147E0
8.249405839E0,-1.038208961E0,-2.118331909E0,6.971308231E0
8.254428353E0,-9.048240185E-1,-2.236530066E0,7.815743923E0
8.259450950E0,-9.336789846E-1,-1.272964001E0,4.621343136E0
8.264473515E0,-8.909829855E-1,-1.580466032E0,5.849250793E0
8.269496005E0,-6.528890133E-1,-7.567870021E-1,2.484991074E0
8.274518517E0,-6.603350043E-1,-1.002295017E0,3.544672966E0
8.279541149E0,-5.414549708E-1,-2.219830006E-1,7.638999820E-1
8.284563746E0,-4.850290120E-1,-4.964520037E-1,1.550014019E0
8.289586306E0,-3.656440079E-1,2.518399991E-2,-3.432880044E-1
8.294608887E0,-3.647440076E-1,-9.534499794E-2,1.450199932E-1
8.299631373E0,-1.690039933E-1,1.881520003E-1,-1.021487951E0
8.304653887E0,-2.077420056E-1,4.954199865E-2,-7.051609755E-1
8.309676460E0,-1.348199975E-2,2.934550047E-1,-1.471187949E0
8.314699025E0,-9.127800167E-2,1.733209938E-1,-1.255210042E0
8.319721529E0,1.694660038E-1,3.137750030E-1,-1.812206030E0
8.324744041E0,7.143000141E-3,2.814109921E-1,-1.665197968E0
8.329766628E0,4.729560018E-1,3.291569948E-1,-2.160931110E0
8.334789193E0,2.053149939E-1,2.757869959E-1,-1.970440030E0
8.339811817E0,6.394630075E-1,3.504689932E-1,-2.708718061E0
8.344834424E0,4.424029887E-1,3.225660026E-1,-2.482109070E0
8.349856907E0,5.021079779E-1,2.682439983E-1,-2.926043987E0
8.354879426E0,4.613299966E-1,2.891049981E-1,-2.854693890E0
8.359902011E0,2.480590045E-1,2.644799948E-1,-2.971657038E0
8.364924577E0,3.292709887E-1,2.557469904E-1,-2.979351044E0
8.369947077E0,-6.770300120E-2,1.861609966E-1,-2.975085020E0
8.374969589E0,1.275029927E-1,2.584959865E-1,-2.966142893E0
8.379992156E0,-2.153159976E-1,2.124309987E-1,-2.996246099E0
8.385014721E0,-3.393299878E-2,1.950760037E-1,-2.944956064E0
8.390037341E0,-1.957380027E-1,2.567999959E-1,-3.174318075E0
8.395059948E0,-9.267099947E-2,2.124159932E-1,-3.059658051E0
8.400082416E0,1.640550047E-1,2.463620007E-1,-3.400094986E0
8.405104935E0,3.941300139E-2,2.017630041E-1,-3.304141045E0
8.410127521E0,4.638929963E-1,4.571770132E-1,-3.795958996E0
8.415150087E0,3.954420090E-1,2.492229939E-1,-3.566859007E0
8.420172563E0,5.767220259E-1,4.685879946E-1,-4.318880081E0
8.425195075E0,4.835410118E-1,3.256829977E-1,-4.110031128E0
8.430217662E0,4.577789903E-1,5.207149982E-1,-4.783682823E0
8.435240227E0,4.960390031E-1,2.668179870E-1,-4.530941010E0
8.440262864E0,2.457630038E-1,4.039529860E-1,-5.397026062E0
8.445285471E0,3.261629939E-1,1.809419990E-1,-5.099483967E0
8.450307949E0,1.861079931E-1,2.102759928E-1,-5.792129993E0
8.455330468E0,1.700080037E-1,-4.294999875E-3,-5.603363037E0
8.460353050E0,2.165279984E-1,-3.491099924E-2,-5.970445156E0
8.465375616E0,2.175450027E-1,-2.662410140E-1,-5.868138790E0
8.470398097E0,3.075489998E-1,-2.225400060E-1,-6.112417221E0
8.475420609E0,2.201009989E-1,-4.156509936E-1,-6.019771099E0
8.480443195E0,4.894570112E-1,-5.030620098E-1,-6.063779831E0
8.485465760E0,3.119130135E-1,-6.450340152E-1,-6.106690884E0
8.490488264E0,6.275849938E-1,-7.607849836E-1,-5.833549023E0
8.495510776E0,4.513820112E-1,-8.622679710E-1,-5.903291225E0
8.500533413E0,4.147790074E-1,-8.794329762E-1,-5.399056911E0
8.505556009E0,4.668950140E-1,-9.955469966E-1,-5.677278042E0
8.510578444E0,1.862230003E-1,-1.027250051E0,-4.722778797E0
8.515600929E0,1.976380050E-1,-1.024518967E0,-5.041767120E0
8.520623581E0,6.018399820E-2,-9.702860117E-1,-3.924030066E0
8.525646173E0,7.469099760E-2,-1.037853003E0,-4.378557205E0
8.530668749E0,1.140009984E-1,-9.100059867E-1,-3.435220957E0
8.535691329E0,2.948600054E-2,-9.008520246E-1,-3.636488914E0
8.540713819E0,8.676700294E-2,-8.011969924E-1,-2.722068071E0
8.545736333E0,5.778799951E-2,-7.854869962E-1,-3.124535084E0
8.550758965E0,5.655699968E-2,-6.822959781E-1,-1.883834004E0
8.555781562E0,3.945999779E-3,-5.592430234E-1,-2.334136009E0
8.560804152E0,-1.204890013E-1,-9.574000239E-1,-1.093500033E-1
8.565826733E0,-2.467600070E-2,-5.871610045E-1,-1.145861983E0
8.570849219E0,-1.298869997E-1,-1.193743944E0,1.868531942E0
8.575871733E0,-1.394039989E-1,-8.040310144E-1,8.619769812E-1
8.580894320E0,-3.119260073E-1,-1.264533997E0,3.434134007E0
8.585916885E0,-1.587679982E-1,-9.186000228E-1,2.664438009E0
8.590939370E0,-7.839050293E-1,-1.022848964E0,4.190581799E0
8.595961882E0,-4.415119886E-1,-8.926690221E-1,3.952667952E0
8.600984469E0,-9.470639825E-1,-6.656720042E-1,4.160942078E0
8.606007034E0,-8.055649996E-1,-6.737089753E-1,4.212637901E0
8.611029667E0,-6.466230154E-1,-3.056190014E-1,3.963731050E0
8.616052273E0,-7.908350229E-1,-3.531860113E-1,4.054554939E0
8.621074747E0,2.090499923E-2,-9.945499897E-2,3.887233019E0
8.626097266E0,-3.358559906E-1,-1.138809994E-1,3.920362949E0
8.631119847E0,4.249019921E-1,6.946899742E-2,4.066690922E0
8.636142413E0,1.807409972E-1,6.574399769E-2,3.917737961E0
8.641164908E0,5.793939829E-1,2.970269918E-1,4.193268776E0
8.646187420E0,3.714039922E-1,2.256750017E-1,4.184381008E0
8.651209997E0,9.099450111E-1,3.366770148E-1,4.132730007E0
8.656232562E0,5.867080092E-1,3.233309984E-1,4.201159000E0
8.661255200E0,9.873120189E-1,3.622179925E-1,4.169340134E0
8.666277807E0,8.538640141E-1,3.971480131E-1,4.106834888E0
8.671300305E0,1.124941945E0,2.537789941E-1,4.284051895E0
8.676322824E0,9.293149710E-1,3.765310049E-1,4.272284031E0
8.681345410E0,9.103959799E-1,1.239309981E-1,4.143475056E0
8.686367976E0,9.554830194E-1,2.776870131E-1,4.174615860E0
8.691390466E0,3.671579957E-1,-1.502110064E-1,4.134365082E0
8.696412978E0,6.206060052E-1,8.593799919E-2,4.147189140E0
8.701435579E0,-6.984000094E-3,-4.591409862E-1,4.592092991E0
8.706458144E0,1.701820046E-1,-1.311369985E-1,4.278937817E0
8.711480634E0,-1.444160044E-1,-9.706529975E-1,5.418167114E0
8.716503146E0,-4.744400084E-2,-4.503709972E-1,4.968510151E0
8.721525748E0,-3.299640119E-1,-1.428166032E0,6.756434917E0
8.726548313E0,-1.530240029E-1,-9.305340052E-1,6.052188873E0
8.731570927E0,-7.282130122E-1,-1.737522006E0,7.845911026E0
8.736593533E0,-3.972060084E-1,-1.349426031E0,7.405615807E0
8.741616016E0,-7.370380163E-1,-1.721389055E0,8.032586098E0
8.746638535E0,-6.336420178E-1,-1.576025009E0,8.083106041E0
8.751661121E0,-2.994590104E-1,-1.493587017E0,7.131114006E0
8.756683687E0,-4.105170071E-1,-1.533082962E0,7.738627911E0
8.761706177E0,1.470119953E-1,-1.091511965E0,5.451791763E0
8.766728689E0,-4.273000173E-3,-1.289729953E0,6.348744869E0
8.771751276E0,5.451589823E-1,-7.068409920E-1,3.543128967E0
8.776773841E0,3.384909928E-1,-1.007295012E0,4.555684090E0
8.781796331E0,1.012595057E0,-2.305089980E-1,1.352578044E0
8.786818843E0,6.891880035E-1,-6.055309772E-1,2.450926065E0
8.791841425E0,1.330407977E0,3.183149993E-1,-1.040326953E0
8.796863990E0,1.056563020E0,-1.182669997E-1,1.245879978E-1
8.801886605E0,1.251199007E0,5.943549871E-1,-3.135533094E0
8.806909212E0,1.068472981E0,2.583979964E-1,-2.210583925E0
8.811931704E0,8.544899821E-1,7.279450297E-1,-4.135721207E0
8.816954223E0,8.364440203E-1,4.719470143E-1,-3.763967991E0
8.821976799E0,4.180020094E-1,5.261759758E-1,-4.284836769E0
8.826999365E0,4.844239950E-1,5.413269997E-1,-4.340116978E0
8.832021855E0,-2.439839989E-1,1.707759947E-1,-3.424454927E0
8.837044367E0,1.215000004E-1,2.664810121E-1,-3.918669939E0
8.842066954E0,-5.959569812E-1,-6.481599808E-2,-2.647682905E0
8.847089519E0,-2.870270014E-1,1.436900049E-1,-2.988145113E0
8.852112153E0,-7.251729965E-1,-6.258899719E-2,-2.313463926E0
8.857134759E0,-4.124740064E-1,4.949000198E-3,-2.412321091E0
8.862157252E0,-8.362119794E-1,5.340899900E-2,-2.200004101E0
8.867179771E0,-5.050960183E-1,6.306800246E-2,-2.276387930E0
8.872202347E0,-8.458979726E-1,1.452620029E-1,-2.178570032E0
8.877224913E0,-5.482800007E-1,1.678480059E-1,-2.152930021E0
8.882247403E0,-6.840620041E-1,2.871429920E-1,-2.370732069E0
8.887269915E0,-5.531489849E-1,2.028560042E-1,-2.232294083E0
8.892292502E0,-1.858649999E-1,4.623259902E-1,-2.907013893E0
8.897315067E0,-2.367700040E-1,2.799189985E-1,-2.573535919E0
8.902337681E0,3.807759881E-1,6.123269796E-1,-3.708777905E0
8.907360288E0,2.197909951E-1,3.744310141E-1,-3.286412954E0
8.912382771E0,7.621920109E-1,7.986479998E-1,-4.561625004E0
8.917405290E0,6.083570123E-1,4.539229870E-1,-4.147162914E0
8.922427847E0,5.883979797E-1,7.585440278E-1,-5.317518234E0
8.927450413E0,6.725059748E-1,4.537639916E-1,-4.911767960E0
8.932472913E0,3.209080100E-1,6.229140162E-1,-5.843402863E0
8.937495425E0,4.534490108E-1,2.944040000E-1,-5.622457981E0
8.942518012E0,5.072280169E-1,2.288209945E-1,-6.134585857E0
8.947540577E0,3.866440058E-1,5.473199859E-2,-5.995550156E0
8.952563067E0,7.791399956E-1,-2.802200019E-1,-5.891271114E0
8.957585579E0,6.186169982E-1,-3.368900120E-1,-6.032433987E0
8.962608161E0,9.392619729E-1,-6.286990047E-1,-5.623240948E0
8.967630726E0,7.818269730E-1,-6.501820087E-1,-5.688137054E0
8.972653350E0,6.708930135E-1,-8.506619930E-1,-5.379745007E0
8.977675957E0,7.317889929E-1,-8.302850127E-1,-5.508387089E0
8.982698395E0,2.191420048E-1,-9.694420099E-1,-5.216421127E0
8.987720882E0,5.005109906E-1,-9.690619707E-1,-5.269943237E0
8.992743518E0,-1.272169948E-1,-1.057065964E0,-4.794992924E0
8.997766110E0,2.071380019E-1,-9.742349982E-1,-5.058190823E0
9.002788595E0,-3.456969857E-1,-9.905790091E-1,-4.286093235E0
9.007811112E0,4.129999783E-3,-9.936659932E-1,-4.512897968E0
9.012833712E0,-2.431309968E-1,-8.344939947E-1,-3.690809965E0
9.017856278E0,-1.455300003E-1,-8.711299896E-1,-3.965105057E0
9.022878782E0,2.332960069E-1,-6.628550291E-1,-3.242950916E0
9.027901294E0,1.455779970E-1,-7.380890250E-1,-3.445091009E0
9.032923922E0,6.711559892E-1,-3.505899906E-1,-2.818826914E0
9.037946519E0,3.930020034E-1,-5.267879963E-1,-2.988960981E0
9.042969084E0,1.111655951E0,-7.372199744E-2,-2.981015921E0
9.047991665E0,6.941720247E-1,-2.926470041E-1,-2.891089916E0
9.053014132E0,1.233188033E0,1.671829969E-1,-3.154129982E0
9.058036646E0,9.246929884E-1,-7.400300354E-2,-3.097583055E0
9.063059233E0,1.088379979E0,1.002900004E-1,-2.587783098E0
9.068081798E0,8.948569894E-1,1.399389952E-1,-3.059562922E0
9.073104288E0,7.257959843E-1,-3.500109911E-1,-1.057557940E0
9.078126800E0,7.479730248E-1,-4.445099831E-2,-1.926372051E0
9.083149382E0,1.729779989E-1,-6.698020101E-1,9.200220108E-1
9.088171947E0,3.507980108E-1,-3.022849858E-1,-1.405570060E-1
9.093194561E0,-2.857120037E-1,-9.290339947E-1,2.887187004E0
9.098217168E0,-5.509300157E-2,-4.582290053E-1,1.869194984E0
9.103239606E0,-6.827740073E-1,-1.079851031E0,4.867940903E0
9.108262093E0,-4.407970011E-1,-6.549090147E-1,3.872466087E0
9.113284739E0,-1.051576018E0,-1.006718040E0,6.173672199E0
9.118307331E0,-8.013960123E-1,-7.477520108E-1,5.614560127E0
9.123329830E0,-1.095314026E0,-7.819489837E-1,7.031977177E0
9.128352347E0,-1.016602039E0,-6.788889766E-1,6.618032932E0
9.133374919E0,-8.897240162E-1,-4.298709929E-1,7.472251892E0
9.138397485E0,-1.013131022E0,-4.391750097E-1,7.302219868E0
9.143419975E0,-3.028469980E-1,-1.289699972E-2,7.319868088E0
9.148442487E0,-6.611170173E-1,-1.572369933E-1,7.484118938E0
9.153465088E0,1.040240005E-1,4.258500040E-1,6.639452934E0
9.158487653E0,-1.272999942E-1,2.544879913E-1,6.985663891E0
9.163510139E0,3.030439913E-1,7.203980088E-1,6.104585171E0
9.168532651E0,1.448010057E-1,5.390040278E-1,6.350954056E0
9.173555283E0,3.395729959E-1,8.176760077E-1,5.611396790E0
9.178577880E0,2.226780057E-1,7.868400216E-1,5.822483063E0
9.183600450E0,3.830940127E-1,5.293250084E-1,5.705732822E0
9.188623031E0,3.096210063E-1,7.887030244E-1,5.530529022E0
9.193645502E0,4.902710021E-1,-4.002699852E-1,6.849847794E0
9.198668016E0,3.354400098E-1,2.674419880E-1,6.163688183E0
9.203690608E0,5.751150250E-1,-1.431092978E0,8.620576859E0
9.208713173E0,4.899869859E-1,-5.889829993E-1,7.709832191E0
9.213735658E0,4.359819889E-1,-2.606293917E0,1.054572105E1
9.218758170E0,4.504059851E-1,-1.665328979E0,9.624910355E0
9.223780757E0,-5.843489766E-1,-2.988399982E0,1.194903660E1
9.228803322E0,-8.033099771E-2,-2.566370964E0,1.133208370E1
9.233825941E0,-1.360445976E0,-3.129775047E0,1.186516762E1
9.238848548E0,-9.950580001E-1,-2.870610952E0,1.222838497E1
9.243871018E0,-1.835914969E0,-2.710577965E0,9.704742432E0
9.248893537E0,-1.513175964E0,-2.942730904E0,1.098708439E1
9.253916112E0,-1.725780964E0,-2.023574114E0,6.951649189E0
9.258938678E0,-1.709753990E0,-2.339768887E0,8.340559006E0
9.263961178E0,-1.360749006E0,-1.492197990E0,4.406725883E0
9.268983690E0,-1.345839977E0,-1.892539024E0,5.634863853E0
9.274006267E0,-1.064928055E0,-9.344040155E-1,2.295649052E0
9.279028832E0,-1.038570046E0,-1.294986963E0,3.277363062E0
9.284051322E0,-6.226090193E-1,-6.547729969E-1,7.476530075E-1
9.289073834E0,-7.385089993E-1,-9.358689785E-1,1.415321946E0
9.294096452E0,-3.125729859E-1,-4.469729960E-1,-1.902910024E-1
9.299119049E0,-3.798629940E-1,-6.102859974E-1,2.339770049E-1
9.304141643E0,-4.182530046E-1,-4.014149904E-1,-6.962839961E-1
9.309164224E0,-3.091810048E-1,-4.943450093E-1,-4.717189968E-1
9.314186715E0,-5.930529833E-1,-4.880020022E-1,-9.063680172E-1
9.319209229E0,-4.931479990E-1,-4.731459916E-1,-8.326039910E-1
9.324231801E0,-4.489440024E-1,-6.184790134E-1,-1.013403058E0
9.329254366E0,-5.337970257E-1,-5.627700090E-1,-9.083129764E-1
9.334276861E0,-9.306900203E-2,-6.280320287E-1,-1.053666949E0
9.339299373E0,-2.495149970E-1,-6.120920181E-1,-1.060642958E0
9.344321965E0,3.673899919E-2,-6.496890187E-1,-1.130107045E0
9.349344530E0,-4.920000210E-4,-5.958859921E-1,-1.050410986E0
9.354367144E0,7.836999744E-2,-6.236339808E-1,-1.489527941E0
9.359389751E0,1.050899997E-1,-6.018679738E-1,-1.283635020E0
9.364412189E0,1.276300009E-2,-4.792619944E-1,-1.867879987E0
9.369434676E0,9.787700325E-2,-5.366309881E-1,-1.647804976E0
9.374457167E0,2.141399980E-1,-4.100300074E-1,-2.443304062E0
9.379479664E0,1.579540074E-1,-4.424729943E-1,-2.105963945E0
9.384502286E0,5.372580290E-1,-1.591960043E-1,-3.261953115E0
9.389524881E0,4.363259971E-1,-3.403789997E-1,-2.844172955E0
9.394547460E0,6.252470016E-1,9.169200063E-2,-4.134209156E0
9.399570041E0,6.322500110E-1,-7.136599720E-2,-3.624339104E0
9.404592527E0,6.340640187E-1,1.252260059E-1,-5.179066181E0
9.409615041E0,6.830869913E-1,-1.214000024E-2,-4.705220222E0
9.414637628E0,4.225229919E-1,2.754999995E-1,-5.983740807E0
9.419660193E0,6.898249984E-1,5.431000143E-2,-5.598546028E0
9.424682673E0,4.054790139E-1,2.712930143E-1,-6.750855923E0
9.429705185E0,6.079229712E-1,8.951099962E-2,-6.258852959E0
9.434727782E0,8.081600070E-1,2.417079955E-1,-7.414432049E0
9.439750347E0,8.869349957E-1,-2.437900007E-2,-7.105039120E0
9.444772971E0,1.388901949E0,8.835499734E-2,-7.653999805E0
9.449795578E0,1.240615964E0,-1.448460072E-1,-7.514373779E0
9.454818070E0,1.899570942E0,-2.250600010E-1,-8.074816704E0
9.459840589E0,1.826022029E0,-5.021510124E-1,-7.776840210E0
9.464863170E0,1.816817045E0,-4.542190135E-1,-8.120175362E0
9.469885736E0,1.956591964E0,-9.436889887E-1,-8.042184830E0
9.474908226E0,1.669327021E0,-8.335419893E-1,-8.242348671E0
9.479930738E0,1.901710987E0,-1.322898984E0,-8.011439323E0
9.484953330E0,1.744943023E0,-1.343214989E0,-7.812121868E0
9.489975895E0,2.088448048E0,-1.813784003E0,-7.792744160E0
9.494998380E0,2.107309103E0,-1.872037053E0,-7.386098862E0
9.500020892E0,2.111443043E0,-2.209115028E0,-7.267080784E0
9.505043494E0,2.495366096E0,-2.139868021E0,-6.885477066E0
9.510066059E0,2.377093077E0,-2.639275074E0,-6.905559063E0
9.515088682E0,2.517393112E0,-2.525672913E0,-6.301836014E0
9.520111288E0,2.319785118E0,-2.819628000E0,-6.378465176E0
9.525133776E0,2.293231964E0,-2.815135002E0,-5.594279766E0
9.530156295E0,2.099638939E0,-2.997538090E0,-5.925948143E0
9.535178871E0,2.076143980E0,-2.929590940E0,-4.785005093E0
9.540201437E0,1.808822989E0,-2.983964920E0,-5.260660172E0
9.545223951E0,1.951645017E0,-3.126300097E0,-3.775403976E0
9.550246463E0,1.594993949E0,-2.857426882E0,-4.521800041E0
9.555269059E0,1.717810035E0,-3.353847027E0,-2.265760899E0
9.560291624E0,1.452837944E0,-2.855252028E0,-3.327001095E0
9.565314138E0,1.152608037E0,-3.255980968E0,-8.670390248E-1
9.570336650E0,1.155619025E0,-2.779041052E0,-1.832438946E0
9.575359242E0,6.321840286E-1,-2.892179012E0,7.893399894E-2
9.580381807E0,7.411699891E-1,-2.505747080E0,-6.294140220E-1
9.585404326E0,3.880710006E-1,-2.274590969E0,8.798660040E-1
9.590426838E0,3.902150095E-1,-2.007038116E0,2.556090057E-1
9.595449470E0,5.417330265E-1,-1.778885961E0,1.943513036E0
9.600472067E0,4.216029942E-1,-1.576210022E0,1.305874944E0
9.605494666E0,6.130030155E-1,-1.241281033E0,2.935234070E0
9.610517247E0,4.873610139E-1,-1.118569970E0,2.363462925E0
9.615539742E0,7.937629819E-1,-8.833630085E-1,3.609191895E0
9.620562256E0,5.416499972E-1,-7.222089767E-1,3.191939116E0
9.625584834E0,9.316350222E-1,-4.638270140E-1,3.880419970E0
9.630607399E0,6.646260023E-1,-3.809570074E-1,3.751132965E0
9.635629884E0,8.787909746E-1,-2.332219929E-1,4.036102772E0
9.640652396E0,6.821560264E-1,-1.642239988E-1,3.864795923E0
9.645674997E0,7.136480212E-1,-9.508199990E-2,4.638291836E0
9.650697562E0,5.410630107E-1,7.957600057E-2,4.293909073E0
9.655720052E0,5.019289851E-1,-1.689160019E-1,5.387316227E0
9.660742564E0,4.165529907E-1,2.173599973E-2,4.994196892E0
9.665765196E0,3.935590088E-1,-2.929959893E-1,6.107411861E0
9.670787792E0,3.056449890E-1,-5.784000084E-2,5.743131161E0
9.675810367E0,3.110829890E-1,-3.031010032E-1,6.434164047E0
9.680832948E0,3.052380085E-1,-1.652410030E-1,6.320491791E0
9.685855434E0,2.582600117E-1,-1.062090024E-1,6.267591953E0
9.690877948E0,2.562949955E-1,-9.610500187E-2,6.382651806E0
9.695900521E0,2.622300088E-1,6.386999786E-2,5.990354061E0
9.700923086E0,2.321230024E-1,8.479999751E-2,6.122973919E0
9.705945595E0,5.177779794E-1,-1.625680029E-1,5.669178009E0
9.710968107E0,4.049240053E-1,4.312000051E-2,5.888680935E0
9.715990699E0,4.194599986E-1,-3.831059933E-1,5.605747223E0
9.721013264E0,4.835479856E-1,-1.149479970E-1,5.528882980E0
9.726035898E0,1.584999962E-3,-7.613350153E-1,6.085066795E0
9.731058505E0,1.294929981E-1,-3.343090117E-1,5.795769215E0
9.736080978E0,-7.095199823E-2,-1.266199946E0,7.047072887E0
9.741103497E0,-2.998300083E-2,-8.345779777E-1,6.518433094E0
9.746125949E0,-2.425870001E-1,-1.693460941E0,8.025518417E0
9.751148420E0,-1.523499936E-1,-1.249477983E0,7.575835228E0
9.756171064E0,-3.307349980E-1,-1.882053971E0,7.932449818E0
9.761193654E0,-2.245160043E-1,-1.600126028E0,8.163322449E0
9.766216206E0,-2.513810098E-1,-1.709692001E0,7.020564079E0
9.771238786E0,-2.056020051E-1,-1.707921982E0,7.565728188E0
9.776261257E0,-9.221599996E-2,-1.339720011E0,5.648146152E0
9.781283771E0,-1.019790024E-1,-1.457891941E0,6.362884045E0
9.786306354E0,6.707300246E-2,-8.626480103E-1,3.947335958E0
9.791328919E0,4.995400086E-2,-1.142310977E0,4.884118080E0
9.796351385E0,1.817180067E-1,-3.954389989E-1,1.839452982E0
9.801373897E0,1.512639970E-1,-6.711609960E-1,2.910798073E0
9.806396483E0,5.106400251E-1,-4.310600087E-2,-7.989899814E-2
9.811419048E0,2.410909981E-1,-3.037630022E-1,8.621630073E-1
9.816441533E0,8.254010081E-1,2.081290036E-1,-1.706599951E0
9.821464045E0,5.628079772E-1,8.531000465E-3,-1.040439010E0
9.826486701E0,5.672789812E-1,3.739069998E-1,-2.661441088E0
9.831509298E0,5.885300040E-1,2.473019958E-1,-2.302478075E0
9.836531746E0,5.904600024E-2,1.991789937E-1,-2.642977953E0
9.841554232E0,2.288230062E-1,2.759630084E-1,-2.761672974E0
9.846576869E0,-2.277159989E-1,9.120800346E-2,-1.945595026E0
9.851599461E0,-5.384000018E-2,2.073320001E-1,-2.313076019E0
9.856622024E0,-3.822099864E-1,-9.385900199E-2,-1.336657047E0
9.861644604E0,-2.349359989E-1,1.149770021E-1,-1.592300057E0
9.866667090E0,-6.783890128E-1,-7.723800093E-2,-1.154049039E0
9.871689604E0,-3.113650084E-1,9.476000443E-3,-1.186625004E0
9.876712186E0,-1.002550006E0,7.230500132E-2,-1.319326997E0
9.881734751E0,-6.402119994E-1,8.484700322E-2,-1.198418975E0
9.886757250E0,-1.205909967E0,2.903519869E-1,-1.646636963E0
9.891779762E0,-8.191369772E-1,2.125100046E-1,-1.481109977E0
9.896802349E0,-1.023345947E0,4.376049936E-1,-2.171701908E0
9.901824914E0,-8.334800005E-1,3.455280066E-1,-1.819425941E0
9.906847404E0,-6.464939713E-1,5.648990273E-1,-2.919727087E0
9.911869916E0,-5.304229856E-1,4.136070013E-1,-2.525630951E0
9.916892543E0,-1.827230006E-1,6.367350221E-1,-3.686928034E0
9.921915140E0,-1.635250002E-1,4.731369913E-1,-3.272202015E0
9.926937714E0,3.953439891E-1,7.140650153E-1,-4.568142891E0
9.931960295E0,2.948279977E-1,5.167840123E-1,-4.094574928E0
9.936982773E0,6.810129881E-1,8.886129856E-1,-5.529013157E0
9.942005287E0,6.942489743E-1,5.597339869E-1,-5.068680763E0
9.947027873E0,7.895259857E-1,8.468480110E-1,-6.464824200E0
9.952050438E0,8.215289712E-1,5.595089793E-1,-5.994309902E0
9.957072922E0,9.324589968E-1,6.425889730E-1,-7.204071045E0
9.962095434E0,1.016587019E0,3.368220031E-1,-6.843791962E0
9.967118021E0,1.060001969E0,2.784729898E-1,-7.663074970E0
9.972140586E0,1.191820979E0,1.220600028E-2,-7.400462151E0
9.977163067E0,1.183392048E0,-1.403450072E-1,-7.845026016E0
9.982185579E0,1.415416002E0,-3.845390081E-1,-7.731949806E0
9.987208165E0,1.470860958E0,-5.787360072E-1,-7.743327141E0
9.992230730E0,1.588179946E0,-8.025180101E-1,-7.660922050E0
9.997253364E0,1.820593953E0,-9.558429718E-1,-7.117390156E0
1.000227597E1,1.860520005E0,-1.081187010E0,-7.459263802E0
1.000729841E1,1.955137968E0,-1.208783984E0,-6.198945999E0
1.001232090E1,1.911612034E0,-1.246122003E0,-6.577970982E0
1.001734351E1,2.074259043E0,-1.280761957E0,-5.410378933E0
1.002236610E1,1.813905001E0,-1.231868982E0,-5.820877075E0
1.002738860E1,1.888517022E0,-1.123021007E0,-4.628265858E0
1.003241112E1,1.849586010E0,-1.187304974E0,-5.091277122E0
1.003743370E1,1.550374031E0,-8.785619736E-1,-4.293618202E0
1.004245627E1,1.423863053E0,-9.426670074E-1,-4.481577873E0
1.004747874E1,1.608672976E0,-5.847409964E-1,-4.128859997E0
1.005250125E1,1.283244014E0,-7.884050012E-1,-4.260198116E0
1.005752384E1,1.683434963E0,-3.394019902E-1,-3.830641985E0
1.006254641E1,1.325320959E0,-4.659369886E-1,-4.095064163E0
1.006756890E1,1.543805003E0,-3.826679885E-1,-2.806561947E0
1.007259141E1,1.299060941E0,-3.472599983E-1,-3.496443033E0
1.007761400E1,1.323377967E0,-5.562009811E-1,-1.112895966E0
1.008263656E1,1.124899983E0,-3.314940035E-1,-2.044450045E0
1.008765918E1,9.684879780E-1,-6.859570146E-1,5.302039981E-1
1.009268178E1,9.272800088E-1,-3.950330019E-1,-3.365829885E-1
1.009770430E1,5.138229728E-1,-5.284579992E-1,2.161870003E0
1.010272681E1,6.395189762E-1,-3.527269959E-1,1.296885967E0
1.010774941E1,3.207919896E-1,-5.254999995E-1,3.518256903E0
1.011277198E1,2.903609872E-1,-2.093279958E-1,2.814918995E0
